Date,Time,File,Subj,Cond,Block,Trial,Order,task,Resp,Name,Stim,RT,Correct,Started@,LoadTime,TotalInt,Stim 1,Time 1,Stim 2,Time 2,
6/17/2016,14:24,C:\Documents and Settings\lab\Desktop\Tadpole\Perceptual Study Perceptual Task\Tadpole_Perceptual_5.csv,14,1,1,1,1.01,retrieval,57,SPACE,"press spacebar to start perceptual task",4396,True,0,165,206,"press spacebar to start perceptual task",4432,
6/17/2016,14:24,C:\Documents and Settings\lab\Desktop\Tadpole\Perceptual Study Perceptual Task\Tadpole_Perceptual_5.csv,14,1,1,1,2.01,retrieval,57,SPACE,"MutedBallie.avi (174x144)",439,True,4638,2918,2945,"MutedBallie.avi (174x144)",455,"blacksquare.bmp",4044,
6/17/2016,14:24,C:\Documents and Settings\lab\Desktop\Tadpole\Perceptual Study Perceptual Task\Tadpole_Perceptual_5.csv,14,1,1,1,2.02,retrieval,57,SPACE,"blacksquare.bmp",4035,True,4638,2918,2945,"MutedBallie.avi (174x144)",455,"blacksquare.bmp",4044,
6/17/2016,14:24,C:\Documents and Settings\lab\Desktop\Tadpole\Perceptual Study Perceptual Task\Tadpole_Perceptual_5.csv,14,1,1,2,3.01,retrieval,2,2,"elephant_bear_b.bmp",3382,True,12082,321,348,"elephant_bear_b.bmp",3400,"blacksquare.bmp",1929,
6/17/2016,14:24,C:\Documents and Settings\lab\Desktop\Tadpole\Perceptual Study Perceptual Task\Tadpole_Perceptual_5.csv,14,1,1,2,3.02,retrieval,57,SPACE,"blacksquare.bmp",1926,True,12082,321,348,"elephant_bear_b.bmp",3400,"blacksquare.bmp",1929,
6/17/2016,14:24,C:\Documents and Settings\lab\Desktop\Tadpole\Perceptual Study Perceptual Task\Tadpole_Perceptual_5.csv,14,1,1,3,4.01,retrieval,1,1,"bicycle_clock_b.bmp",2558,True,17759,173,200,"bicycle_clock_b.bmp",2571,"blacksquare.bmp",2544,
6/17/2016,14:24,C:\Documents and Settings\lab\Desktop\Tadpole\Perceptual Study Perceptual Task\Tadpole_Perceptual_5.csv,14,1,1,3,4.02,retrieval,57,SPACE,"blacksquare.bmp",2533,True,17759,173,200,"bicycle_clock_b.bmp",2571,"blacksquare.bmp",2544,
6/17/2016,14:24,C:\Documents and Settings\lab\Desktop\Tadpole\Perceptual Study Perceptual Task\Tadpole_Perceptual_5.csv,14,1,1,4,5.01,retrieval,1,1,"cake_doll_b.bmp",3991,True,23074,201,227,"cake_doll_b.bmp",4017,"blacksquare.bmp",1058,
6/17/2016,14:24,C:\Documents and Settings\lab\Desktop\Tadpole\Perceptual Study Perceptual Task\Tadpole_Perceptual_5.csv,14,1,1,4,5.02,retrieval,57,SPACE,"blacksquare.bmp",1051,True,23074,201,227,"cake_doll_b.bmp",4017,"blacksquare.bmp",1058,
6/17/2016,14:24,C:\Documents and Settings\lab\Desktop\Tadpole\Perceptual Study Perceptual Task\Tadpole_Perceptual_5.csv,14,1,1,5,6.01,retrieval,2,2,"egg_hat_b.bmp",3124,True,28376,187,214,"egg_hat_b.bmp",3146,"blacksquare.bmp",1004,
6/17/2016,14:24,C:\Documents and Settings\lab\Desktop\Tadpole\Perceptual Study Perceptual Task\Tadpole_Perceptual_5.csv,14,1,1,5,6.02,retrieval,57,SPACE,"blacksquare.bmp",997,True,28376,187,214,"egg_hat_b.bmp",3146,"blacksquare.bmp",1004,
6/17/2016,14:24,C:\Documents and Settings\lab\Desktop\Tadpole\Perceptual Study Perceptual Task\Tadpole_Perceptual_5.csv,14,1,1,6,7.01,retrieval,1,1,"bottle_leaf_b.bmp",2706,True,32740,54,81,"bottle_leaf_b.bmp",2731,"blacksquare.bmp",1580,
6/17/2016,14:24,C:\Documents and Settings\lab\Desktop\Tadpole\Perceptual Study Perceptual Task\Tadpole_Perceptual_5.csv,14,1,1,6,7.02,retrieval,57,SPACE,"blacksquare.bmp",1576,True,32740,54,81,"bottle_leaf_b.bmp",2731,"blacksquare.bmp",1580,
6/17/2016,14:24,C:\Documents and Settings\lab\Desktop\Tadpole\Perceptual Study Perceptual Task\Tadpole_Perceptual_5.csv,14,1,1,7,8.01,retrieval,1,1,"dog_bunny_b.bmp",3897,True,37132,160,187,"dog_bunny_b.bmp",3922,"blacksquare.bmp",1501,
6/17/2016,14:24,C:\Documents and Settings\lab\Desktop\Tadpole\Perceptual Study Perceptual Task\Tadpole_Perceptual_5.csv,14,1,1,7,8.02,retrieval,57,SPACE,"blacksquare.bmp",1489,True,37132,160,187,"dog_bunny_b.bmp",3922,"blacksquare.bmp",1501,
6/17/2016,14:24,C:\Documents and Settings\lab\Desktop\Tadpole\Perceptual Study Perceptual Task\Tadpole_Perceptual_5.csv,14,1,1,8,9.01,retrieval,2,2,"strawberry_apple_b.bmp",4186,True,42742,147,173,"strawberry_apple_b.bmp",4204,"blacksquare.bmp",2224,
6/17/2016,14:24,C:\Documents and Settings\lab\Desktop\Tadpole\Perceptual Study Perceptual Task\Tadpole_Perceptual_5.csv,14,1,1,8,9.02,retrieval,57,SPACE,"blacksquare.bmp",2213,True,42742,147,173,"strawberry_apple_b.bmp",4204,"blacksquare.bmp",2224,
6/17/2016,14:24,C:\Documents and Settings\lab\Desktop\Tadpole\Perceptual Study Perceptual Task\Tadpole_Perceptual_5.csv,14,1,1,9,10.01,retrieval,1,1,"broccoli_icecream_b.bmp",3286,False,49343,146,173,"broccoli_icecream_b.bmp",3307,"blacksquare.bmp",1782,
6/17/2016,14:24,C:\Documents and Settings\lab\Desktop\Tadpole\Perceptual Study Perceptual Task\Tadpole_Perceptual_5.csv,14,1,1,9,10.02,retrieval,57,SPACE,"blacksquare.bmp",1776,True,49343,146,173,"broccoli_icecream_b.bmp",3307,"blacksquare.bmp",1782,
6/17/2016,14:24,C:\Documents and Settings\lab\Desktop\Tadpole\Perceptual Study Perceptual Task\Tadpole_Perceptual_5.csv,14,1,1,10,11.01,retrieval,1,1,"crayon_teddybear_b.bmp",3595,True,54605,133,160,"crayon_teddybear_b.bmp",3614,"blacksquare.bmp",2250,
6/17/2016,14:24,C:\Documents and Settings\lab\Desktop\Tadpole\Perceptual Study Perceptual Task\Tadpole_Perceptual_5.csv,14,1,1,10,11.02,retrieval,57,SPACE,"blacksquare.bmp",2238,True,54605,133,160,"crayon_teddybear_b.bmp",3614,"blacksquare.bmp",2250,
6/17/2016,14:24,C:\Documents and Settings\lab\Desktop\Tadpole\Perceptual Study Perceptual Task\Tadpole_Perceptual_5.csv,14,1,1,11,12.01,retrieval,1,1,"jacket_pillow_b.bmp",3129,True,60629,107,134,"jacket_pillow_b.bmp",3145,"blacksquare.bmp",5008,
6/17/2016,14:24,C:\Documents and Settings\lab\Desktop\Tadpole\Perceptual Study Perceptual Task\Tadpole_Perceptual_5.csv,14,1,1,11,12.02,retrieval,57,SPACE,"blacksquare.bmp",4998,True,60629,107,134,"jacket_pillow_b.bmp",3145,"blacksquare.bmp",5008,
6/17/2016,14:24,C:\Documents and Settings\lab\Desktop\Tadpole\Perceptual Study Perceptual Task\Tadpole_Perceptual_5.csv,14,1,1,12,13.01,retrieval,1,1,"pig_butterfly_b.bmp",4287,True,68916,108,134,"pig_butterfly_b.bmp",4312,"blacksquare.bmp",3253,
6/17/2016,14:24,C:\Documents and Settings\lab\Desktop\Tadpole\Perceptual Study Perceptual Task\Tadpole_Perceptual_5.csv,14,1,1,12,13.02,retrieval,57,SPACE,"blacksquare.bmp",3250,True,68916,108,134,"pig_butterfly_b.bmp",4312,"blacksquare.bmp",3253,
6/17/2016,14:24,C:\Documents and Settings\lab\Desktop\Tadpole\Perceptual Study Perceptual Task\Tadpole_Perceptual_5.csv,14,1,1,13,14.01,retrieval,2,2,"spoon_fork_b.bmp",3161,True,76615,133,161,"spoon_fork_b.bmp",3186,"blacksquare.bmp",2825,
6/17/2016,14:24,C:\Documents and Settings\lab\Desktop\Tadpole\Perceptual Study Perceptual Task\Tadpole_Perceptual_5.csv,14,1,1,13,14.02,retrieval,57,SPACE,"blacksquare.bmp",2819,True,76615,133,161,"spoon_fork_b.bmp",3186,"blacksquare.bmp",2825,
6/17/2016,14:24,C:\Documents and Settings\lab\Desktop\Tadpole\Perceptual Study Perceptual Task\Tadpole_Perceptual_5.csv,14,1,1,14,15.01,retrieval,2,2,"mouse_refrigerator_b.bmp",3622,True,82787,107,134,"mouse_refrigerator_b.bmp",3642,"blacksquare.bmp",1700,
6/17/2016,14:24,C:\Documents and Settings\lab\Desktop\Tadpole\Perceptual Study Perceptual Task\Tadpole_Perceptual_5.csv,14,1,1,14,15.02,retrieval,57,SPACE,"blacksquare.bmp",1693,True,82787,107,134,"mouse_refrigerator_b.bmp",3642,"blacksquare.bmp",1700,
6/17/2016,14:24,C:\Documents and Settings\lab\Desktop\Tadpole\Perceptual Study Perceptual Task\Tadpole_Perceptual_5.csv,14,1,1,15,16.01,retrieval,2,2,"bread_tv_b.bmp",6198,True,88263,134,160,"bread_tv_b.bmp",6213,"blacksquare.bmp",6440,
6/17/2016,14:24,C:\Documents and Settings\lab\Desktop\Tadpole\Perceptual Study Perceptual Task\Tadpole_Perceptual_5.csv,14,1,1,15,16.02,retrieval,57,SPACE,"blacksquare.bmp",6435,True,88263,134,160,"bread_tv_b.bmp",6213,"blacksquare.bmp",6440,
6/17/2016,14:24,C:\Documents and Settings\lab\Desktop\Tadpole\Perceptual Study Perceptual Task\Tadpole_Perceptual_5.csv,14,1,1,16,17.01,retrieval,1,1,"ball_orange_b.bmp",5329,True,101076,147,173,"ball_orange_b.bmp",5343,"blacksquare.bmp",1660,
6/17/2016,14:24,C:\Documents and Settings\lab\Desktop\Tadpole\Perceptual Study Perceptual Task\Tadpole_Perceptual_5.csv,14,1,1,16,17.02,retrieval,57,SPACE,"blacksquare.bmp",1648,True,101076,147,173,"ball_orange_b.bmp",5343,"blacksquare.bmp",1660,
6/17/2016,14:24,C:\Documents and Settings\lab\Desktop\Tadpole\Perceptual Study Perceptual Task\Tadpole_Perceptual_5.csv,14,1,1,17,18.01,retrieval,1,1,"sock_shoe_b.bmp",4024,True,108252,160,188,"sock_shoe_b.bmp",4043,"blacksquare.bmp",4217,
6/17/2016,14:24,C:\Documents and Settings\lab\Desktop\Tadpole\Perceptual Study Perceptual Task\Tadpole_Perceptual_5.csv,14,1,1,17,18.02,retrieval,57,SPACE,"blacksquare.bmp",4214,True,108252,160,188,"sock_shoe_b.bmp",4043,"blacksquare.bmp",4217,
6/17/2016,14:24,C:\Documents and Settings\lab\Desktop\Tadpole\Perceptual Study Perceptual Task\Tadpole_Perceptual_5.csv,14,1,1,18,19.01,retrieval,2,2,"duck_balloons_b.bmp",2875,True,116700,148,174,"duck_balloons_b.bmp",2892,"blacksquare.bmp",4325,
6/17/2016,14:24,C:\Documents and Settings\lab\Desktop\Tadpole\Perceptual Study Perceptual Task\Tadpole_Perceptual_5.csv,14,1,1,18,19.02,retrieval,57,SPACE,"blacksquare.bmp",4324,True,116700,148,174,"duck_balloons_b.bmp",2892,"blacksquare.bmp",4325,
6/17/2016,14:24,C:\Documents and Settings\lab\Desktop\Tadpole\Perceptual Study Perceptual Task\Tadpole_Perceptual_5.csv,14,1,1,19,20.01,retrieval,1,1,"flowers_cat_b.bmp",7366,True,124091,106,134,"flowers_cat_b.bmp",7390,"blacksquare.bmp",1902,
6/17/2016,14:24,C:\Documents and Settings\lab\Desktop\Tadpole\Perceptual Study Perceptual Task\Tadpole_Perceptual_5.csv,14,1,1,19,20.02,retrieval,57,SPACE,"blacksquare.bmp",1892,True,124091,106,134,"flowers_cat_b.bmp",7390,"blacksquare.bmp",1902,
6/17/2016,14:24,C:\Documents and Settings\lab\Desktop\Tadpole\Perceptual Study Perceptual Task\Tadpole_Perceptual_5.csv,14,1,1,20,21.01,retrieval,2,2,"pizza_cookie_b.bmp",4222,True,133517,843,870,"pizza_cookie_b.bmp",4244,"blacksquare.bmp",1728,
6/17/2016,14:24,C:\Documents and Settings\lab\Desktop\Tadpole\Perceptual Study Perceptual Task\Tadpole_Perceptual_5.csv,14,1,1,20,21.02,retrieval,57,SPACE,"blacksquare.bmp",1718,True,133517,843,870,"pizza_cookie_b.bmp",4244,"blacksquare.bmp",1728,
6/17/2016,14:24,C:\Documents and Settings\lab\Desktop\Tadpole\Perceptual Study Perceptual Task\Tadpole_Perceptual_5.csv,14,1,1,21,22.01,retrieval,2,2,"chair_grapes_b.bmp",3105,True,140359,507,535,"chair_grapes_b.bmp",3119,"whiteborder.bmp",2304,
6/17/2016,14:24,C:\Documents and Settings\lab\Desktop\Tadpole\Perceptual Study Perceptual Task\Tadpole_Perceptual_5.csv,14,1,1,21,22.02,retrieval,57,SPACE,"whiteborder.bmp",2298,True,140359,507,535,"chair_grapes_b.bmp",3119,"whiteborder.bmp",2304,
