Date,Time,File,Subj,Cond,Block,Trial,Order,task,Resp,Name,Stim,RT,Correct,Started@,LoadTime,TotalInt,Stim 1,Time 1,Stim 2,Time 2,
11/10/2015,11:28,C:\Documents and Settings\lab\Desktop\Tadpole\2yoRETRIEVAL\Retrieval_12.csv,102,1,2,1,5.01,encode,57,SPACE,"press spacebar to start retrieval task",1527,True,39030,27,53,"press spacebar to start retrieval task",1540,
11/10/2015,11:28,C:\Documents and Settings\lab\Desktop\Tadpole\2yoRETRIEVAL\Retrieval_12.csv,102,1,2,2,6.01,retrieval,1,1,"chicken_rabbit.bmp",7962,True,40623,174,200,"chicken_rabbit.bmp",7980,"blacksquare.bmp",1862,
11/10/2015,11:28,C:\Documents and Settings\lab\Desktop\Tadpole\2yoRETRIEVAL\Retrieval_12.csv,102,1,2,2,6.02,retrieval,57,SPACE,"blacksquare.bmp",1855,True,40623,174,200,"chicken_rabbit.bmp",7980,"blacksquare.bmp",1862,
11/10/2015,11:28,C:\Documents and Settings\lab\Desktop\Tadpole\2yoRETRIEVAL\Retrieval_12.csv,102,1,2,3,7.01,retrieval,2,2,"eye_nose.bmp",4947,False,50665,160,187,"eye_nose.bmp",4966,"blacksquare.bmp",1875,
11/10/2015,11:28,C:\Documents and Settings\lab\Desktop\Tadpole\2yoRETRIEVAL\Retrieval_12.csv,102,1,2,3,7.02,retrieval,57,SPACE,"blacksquare.bmp",1866,True,50665,160,187,"eye_nose.bmp",4966,"blacksquare.bmp",1875,
11/10/2015,11:28,C:\Documents and Settings\lab\Desktop\Tadpole\2yoRETRIEVAL\Retrieval_12.csv,102,1,2,4,8.01,retrieval,2,2,"barn_house.bmp",7480,True,57693,134,161,"barn_house.bmp",7498,"blacksquare.bmp",1673,
11/10/2015,11:28,C:\Documents and Settings\lab\Desktop\Tadpole\2yoRETRIEVAL\Retrieval_12.csv,102,1,2,4,8.02,retrieval,57,SPACE,"blacksquare.bmp",1669,True,57693,134,161,"barn_house.bmp",7498,"blacksquare.bmp",1673,
11/10/2015,11:28,C:\Documents and Settings\lab\Desktop\Tadpole\2yoRETRIEVAL\Retrieval_12.csv,102,1,2,5,9.01,retrieval,1,1,"clock_telephone.bmp",4114,True,67025,174,201,"clock_telephone.bmp",4137,"blacksquare.bmp",3869,
11/10/2015,11:28,C:\Documents and Settings\lab\Desktop\Tadpole\2yoRETRIEVAL\Retrieval_12.csv,102,1,2,5,9.02,retrieval,57,SPACE,"blacksquare.bmp",3859,True,67025,174,201,"clock_telephone.bmp",4137,"blacksquare.bmp",3869,
11/10/2015,11:28,C:\Documents and Settings\lab\Desktop\Tadpole\2yoRETRIEVAL\Retrieval_12.csv,102,1,2,6,10.01,retrieval,2,2,"belt_tie.bmp",4783,True,75232,148,174,"belt_tie.bmp",4807,"blacksquare.bmp",1607,
11/10/2015,11:28,C:\Documents and Settings\lab\Desktop\Tadpole\2yoRETRIEVAL\Retrieval_12.csv,102,1,2,6,10.02,retrieval,57,SPACE,"blacksquare.bmp",1602,True,75232,148,174,"belt_tie.bmp",4807,"blacksquare.bmp",1607,
11/10/2015,11:28,C:\Documents and Settings\lab\Desktop\Tadpole\2yoRETRIEVAL\Retrieval_12.csv,102,1,2,7,11.01,retrieval,2,2,"tomato_carrot.bmp",4390,True,81820,147,173,"tomato_carrot.bmp",4405,"blacksquare.bmp",1447,
11/10/2015,11:28,C:\Documents and Settings\lab\Desktop\Tadpole\2yoRETRIEVAL\Retrieval_12.csv,102,1,2,7,11.02,retrieval,57,SPACE,"blacksquare.bmp",1436,True,81820,147,173,"tomato_carrot.bmp",4405,"blacksquare.bmp",1447,
11/10/2015,11:28,C:\Documents and Settings\lab\Desktop\Tadpole\2yoRETRIEVAL\Retrieval_12.csv,102,1,2,8,12.01,retrieval,1,1,"bird_turtle.bmp",2503,True,87845,146,174,"bird_turtle.bmp",2516,"blacksquare.bmp",1354,
11/10/2015,11:28,C:\Documents and Settings\lab\Desktop\Tadpole\2yoRETRIEVAL\Retrieval_12.csv,102,1,2,8,12.02,retrieval,57,SPACE,"blacksquare.bmp",1343,True,87845,146,174,"bird_turtle.bmp",2516,"blacksquare.bmp",1354,
11/10/2015,11:28,C:\Documents and Settings\lab\Desktop\Tadpole\2yoRETRIEVAL\Retrieval_12.csv,102,1,2,9,13.01,retrieval,2,2,"balloon_kite.bmp",2989,True,91889,173,200,"balloon_kite.bmp",3012,"blacksquare.bmp",3133,
11/10/2015,11:28,C:\Documents and Settings\lab\Desktop\Tadpole\2yoRETRIEVAL\Retrieval_12.csv,102,1,2,9,13.02,retrieval,57,SPACE,"blacksquare.bmp",3131,True,91889,173,200,"balloon_kite.bmp",3012,"blacksquare.bmp",3133,
11/10/2015,11:28,C:\Documents and Settings\lab\Desktop\Tadpole\2yoRETRIEVAL\Retrieval_12.csv,102,1,2,10,14.01,retrieval,1,1,"couch_bed.bmp",5706,True,98234,147,174,"couch_bed.bmp",5731,"blacksquare.bmp",1526,
11/10/2015,11:28,C:\Documents and Settings\lab\Desktop\Tadpole\2yoRETRIEVAL\Retrieval_12.csv,102,1,2,10,14.02,retrieval,57,SPACE,"blacksquare.bmp",1524,True,98234,147,174,"couch_bed.bmp",5731,"blacksquare.bmp",1526,
11/10/2015,11:28,C:\Documents and Settings\lab\Desktop\Tadpole\2yoRETRIEVAL\Retrieval_12.csv,102,1,2,11,15.01,retrieval,2,2,"bread_potato.bmp",3336,True,105665,308,334,"bread_potato.bmp",3361,"whiteborder.bmp",2718,
11/10/2015,11:28,C:\Documents and Settings\lab\Desktop\Tadpole\2yoRETRIEVAL\Retrieval_12.csv,102,1,2,11,15.02,retrieval,57,SPACE,"whiteborder.bmp",2707,True,105665,308,334,"bread_potato.bmp",3361,"whiteborder.bmp",2718,
11/10/2015,11:28,C:\Documents and Settings\lab\Desktop\Tadpole\2yoRETRIEVAL\Retrieval_12.csv,102,1,2,12,16.01,retrieval,2,2,"airplane_helicopter.bmp",5517,True,112078,147,174,"airplane_helicopter.bmp",5543,"blacksquare.bmp",1352,
11/10/2015,11:28,C:\Documents and Settings\lab\Desktop\Tadpole\2yoRETRIEVAL\Retrieval_12.csv,102,1,2,12,16.02,retrieval,57,SPACE,"blacksquare.bmp",1347,True,112078,147,174,"airplane_helicopter.bmp",5543,"blacksquare.bmp",1352,
11/10/2015,11:28,C:\Documents and Settings\lab\Desktop\Tadpole\2yoRETRIEVAL\Retrieval_12.csv,102,1,2,13,17.01,retrieval,1,1,"strawberry_banana.bmp",4178,True,119147,174,201,"strawberry_banana.bmp",4204,"blacksquare.bmp",1219,
11/10/2015,11:28,C:\Documents and Settings\lab\Desktop\Tadpole\2yoRETRIEVAL\Retrieval_12.csv,102,1,2,13,17.02,retrieval,57,SPACE,"blacksquare.bmp",1217,True,119147,174,201,"strawberry_banana.bmp",4204,"blacksquare.bmp",1219,
11/10/2015,11:28,C:\Documents and Settings\lab\Desktop\Tadpole\2yoRETRIEVAL\Retrieval_12.csv,102,1,2,14,18.01,retrieval,2,2,"grapes_peach.bmp",4515,True,124771,187,213,"grapes_peach.bmp",4539,"blacksquare.bmp",1313,
11/10/2015,11:28,C:\Documents and Settings\lab\Desktop\Tadpole\2yoRETRIEVAL\Retrieval_12.csv,102,1,2,14,18.02,retrieval,57,SPACE,"blacksquare.bmp",1312,True,124771,187,213,"grapes_peach.bmp",4539,"blacksquare.bmp",1313,
11/10/2015,11:28,C:\Documents and Settings\lab\Desktop\Tadpole\2yoRETRIEVAL\Retrieval_12.csv,102,1,2,15,19.01,retrieval,1,1,"lamp_television.bmp",2575,True,130836,146,173,"lamp_television.bmp",2597,"blacksquare.bmp",1259,
11/10/2015,11:28,C:\Documents and Settings\lab\Desktop\Tadpole\2yoRETRIEVAL\Retrieval_12.csv,102,1,2,15,19.02,retrieval,57,SPACE,"blacksquare.bmp",1256,True,130836,146,173,"lamp_television.bmp",2597,"blacksquare.bmp",1259,
11/10/2015,11:28,C:\Documents and Settings\lab\Desktop\Tadpole\2yoRETRIEVAL\Retrieval_12.csv,102,1,2,16,20.01,retrieval,2,2,"apple_pear.bmp",4794,True,134865,134,160,"apple_pear.bmp",4807,"blacksquare.bmp",1340,
11/10/2015,11:28,C:\Documents and Settings\lab\Desktop\Tadpole\2yoRETRIEVAL\Retrieval_12.csv,102,1,2,16,20.02,retrieval,57,SPACE,"blacksquare.bmp",1328,True,134865,134,160,"apple_pear.bmp",4807,"blacksquare.bmp",1340,
11/10/2015,11:28,C:\Documents and Settings\lab\Desktop\Tadpole\2yoRETRIEVAL\Retrieval_12.csv,102,1,2,17,21.01,retrieval,1,1,"cat_dog.bmp",2673,True,141172,146,174,"cat_dog.bmp",2690,"blacksquare.bmp",1219,
11/10/2015,11:28,C:\Documents and Settings\lab\Desktop\Tadpole\2yoRETRIEVAL\Retrieval_12.csv,102,1,2,17,21.02,retrieval,57,SPACE,"blacksquare.bmp",1208,True,141172,146,174,"cat_dog.bmp",2690,"blacksquare.bmp",1219,
11/10/2015,11:28,C:\Documents and Settings\lab\Desktop\Tadpole\2yoRETRIEVAL\Retrieval_12.csv,102,1,2,18,22.01,retrieval,2,2,"ladder_dresser.bmp",3396,True,145255,160,187,"ladder_dresser.bmp",3414,"blacksquare.bmp",1313,
11/10/2015,11:28,C:\Documents and Settings\lab\Desktop\Tadpole\2yoRETRIEVAL\Retrieval_12.csv,102,1,2,18,22.02,retrieval,57,SPACE,"blacksquare.bmp",1303,True,145255,160,187,"ladder_dresser.bmp",3414,"blacksquare.bmp",1313,
11/10/2015,11:28,C:\Documents and Settings\lab\Desktop\Tadpole\2yoRETRIEVAL\Retrieval_12.csv,102,1,2,19,23.01,retrieval,1,1,"mitten_glasses.bmp",2631,False,150169,200,227,"mitten_glasses.bmp",2651,"blacksquare.bmp",1392,
11/10/2015,11:28,C:\Documents and Settings\lab\Desktop\Tadpole\2yoRETRIEVAL\Retrieval_12.csv,102,1,2,19,23.02,retrieval,57,SPACE,"blacksquare.bmp",1380,True,150169,200,227,"mitten_glasses.bmp",2651,"blacksquare.bmp",1392,
11/10/2015,11:28,C:\Documents and Settings\lab\Desktop\Tadpole\2yoRETRIEVAL\Retrieval_12.csv,102,1,2,20,24.01,retrieval,1,1,"butterfly_ant.bmp",2381,True,154439,188,214,"butterfly_ant.bmp",2397,"blacksquare.bmp",2170,
11/10/2015,11:28,C:\Documents and Settings\lab\Desktop\Tadpole\2yoRETRIEVAL\Retrieval_12.csv,102,1,2,20,24.02,retrieval,57,SPACE,"blacksquare.bmp",2164,True,154439,188,214,"butterfly_ant.bmp",2397,"blacksquare.bmp",2170,
11/10/2015,11:28,C:\Documents and Settings\lab\Desktop\Tadpole\2yoRETRIEVAL\Retrieval_12.csv,102,1,2,21,25.01,retrieval,1,1,"cow_horse.bmp",2800,True,159220,133,160,"cow_horse.bmp",2825,"whiteborder.bmp",830,
11/10/2015,11:28,C:\Documents and Settings\lab\Desktop\Tadpole\2yoRETRIEVAL\Retrieval_12.csv,102,1,2,21,25.02,retrieval,57,SPACE,"whiteborder.bmp",829,True,159220,133,160,"cow_horse.bmp",2825,"whiteborder.bmp",830,
