Date,Time,File,Subj,Cond,Block,Trial,Order,task,Resp,Name,Stim,RT,Correct,Started@,LoadTime,TotalInt,Stim 1,Time 1,Stim 2,Time 2,
2/16/2016,11:35,C:\Documents and Settings\lab\Desktop\Tadpole\2yoRETRIEVAL\Retrieval_10.csv,111,1,2,1,5.01,encode,57,SPACE,"press spacebar to start retrieval task",3745,True,17018,26,54,"press spacebar to start retrieval task",3749,
2/16/2016,11:35,C:\Documents and Settings\lab\Desktop\Tadpole\2yoRETRIEVAL\Retrieval_10.csv,111,1,2,2,6.01,retrieval,1,1,"chicken_rabbit.bmp",2849,True,20821,173,200,"chicken_rabbit.bmp",2865,"blacksquare.bmp",1059,
2/16/2016,11:35,C:\Documents and Settings\lab\Desktop\Tadpole\2yoRETRIEVAL\Retrieval_10.csv,111,1,2,2,6.02,retrieval,57,SPACE,"blacksquare.bmp",1055,True,20821,173,200,"chicken_rabbit.bmp",2865,"blacksquare.bmp",1059,
2/16/2016,11:35,C:\Documents and Settings\lab\Desktop\Tadpole\2yoRETRIEVAL\Retrieval_10.csv,111,1,2,3,7.01,retrieval,1,1,"eye_nose.bmp",2320,True,24945,146,172,"eye_nose.bmp",2343,"blacksquare.bmp",1153,
2/16/2016,11:35,C:\Documents and Settings\lab\Desktop\Tadpole\2yoRETRIEVAL\Retrieval_10.csv,111,1,2,3,7.02,retrieval,57,SPACE,"blacksquare.bmp",1148,True,24945,146,172,"eye_nose.bmp",2343,"blacksquare.bmp",1153,
2/16/2016,11:35,C:\Documents and Settings\lab\Desktop\Tadpole\2yoRETRIEVAL\Retrieval_10.csv,111,1,2,4,8.01,retrieval,2,2,"barn_house.bmp",2105,True,28613,120,146,"barn_house.bmp",2129,"blacksquare.bmp",1072,
2/16/2016,11:35,C:\Documents and Settings\lab\Desktop\Tadpole\2yoRETRIEVAL\Retrieval_10.csv,111,1,2,4,8.02,retrieval,57,SPACE,"blacksquare.bmp",1059,True,28613,120,146,"barn_house.bmp",2129,"blacksquare.bmp",1072,
2/16/2016,11:35,C:\Documents and Settings\lab\Desktop\Tadpole\2yoRETRIEVAL\Retrieval_10.csv,111,1,2,5,9.01,retrieval,1,1,"clock_telephone.bmp",3110,True,31960,160,187,"clock_telephone.bmp",3133,"blacksquare.bmp",1112,
2/16/2016,11:35,C:\Documents and Settings\lab\Desktop\Tadpole\2yoRETRIEVAL\Retrieval_10.csv,111,1,2,5,9.02,retrieval,57,SPACE,"blacksquare.bmp",1103,True,31960,160,187,"clock_telephone.bmp",3133,"blacksquare.bmp",1112,
2/16/2016,11:35,C:\Documents and Settings\lab\Desktop\Tadpole\2yoRETRIEVAL\Retrieval_10.csv,111,1,2,6,10.01,retrieval,1,1,"belt_tie.bmp",3046,False,36392,186,213,"belt_tie.bmp",3066,"blacksquare.bmp",1045,
2/16/2016,11:35,C:\Documents and Settings\lab\Desktop\Tadpole\2yoRETRIEVAL\Retrieval_10.csv,111,1,2,6,10.02,retrieval,57,SPACE,"blacksquare.bmp",1044,True,36392,186,213,"belt_tie.bmp",3066,"blacksquare.bmp",1045,
2/16/2016,11:35,C:\Documents and Settings\lab\Desktop\Tadpole\2yoRETRIEVAL\Retrieval_10.csv,111,1,2,7,11.01,retrieval,2,2,"tomato_carrot.bmp",2678,True,40716,147,174,"tomato_carrot.bmp",2690,"blacksquare.bmp",1139,
2/16/2016,11:35,C:\Documents and Settings\lab\Desktop\Tadpole\2yoRETRIEVAL\Retrieval_10.csv,111,1,2,7,11.02,retrieval,57,SPACE,"blacksquare.bmp",1130,True,40716,147,174,"tomato_carrot.bmp",2690,"blacksquare.bmp",1139,
2/16/2016,11:35,C:\Documents and Settings\lab\Desktop\Tadpole\2yoRETRIEVAL\Retrieval_10.csv,111,1,2,8,12.01,retrieval,1,1,"bird_turtle.bmp",3051,True,44719,146,174,"bird_turtle.bmp",3065,"blacksquare.bmp",1795,
2/16/2016,11:35,C:\Documents and Settings\lab\Desktop\Tadpole\2yoRETRIEVAL\Retrieval_10.csv,111,1,2,8,12.02,retrieval,57,SPACE,"blacksquare.bmp",1787,True,44719,146,174,"bird_turtle.bmp",3065,"blacksquare.bmp",1795,
2/16/2016,11:35,C:\Documents and Settings\lab\Desktop\Tadpole\2yoRETRIEVAL\Retrieval_10.csv,111,1,2,9,13.01,retrieval,2,2,"balloon_kite.bmp",2341,True,49753,174,200,"balloon_kite.bmp",2357,"blacksquare.bmp",1286,
2/16/2016,11:35,C:\Documents and Settings\lab\Desktop\Tadpole\2yoRETRIEVAL\Retrieval_10.csv,111,1,2,9,13.02,retrieval,57,SPACE,"blacksquare.bmp",1279,True,49753,174,200,"balloon_kite.bmp",2357,"blacksquare.bmp",1286,
2/16/2016,11:35,C:\Documents and Settings\lab\Desktop\Tadpole\2yoRETRIEVAL\Retrieval_10.csv,111,1,2,10,14.01,retrieval,1,1,"couch_bed.bmp",2390,True,53596,160,186,"couch_bed.bmp",2411,"blacksquare.bmp",1567,
2/16/2016,11:35,C:\Documents and Settings\lab\Desktop\Tadpole\2yoRETRIEVAL\Retrieval_10.csv,111,1,2,10,14.02,retrieval,57,SPACE,"blacksquare.bmp",1559,True,53596,160,186,"couch_bed.bmp",2411,"blacksquare.bmp",1567,
2/16/2016,11:35,C:\Documents and Settings\lab\Desktop\Tadpole\2yoRETRIEVAL\Retrieval_10.csv,111,1,2,11,15.01,retrieval,2,2,"bread_potato.bmp",2133,True,57760,227,254,"bread_potato.bmp",2155,"whiteborder.bmp",1193,
2/16/2016,11:35,C:\Documents and Settings\lab\Desktop\Tadpole\2yoRETRIEVAL\Retrieval_10.csv,111,1,2,11,15.02,retrieval,57,SPACE,"whiteborder.bmp",1179,True,57760,227,254,"bread_potato.bmp",2155,"whiteborder.bmp",1193,
2/16/2016,11:35,C:\Documents and Settings\lab\Desktop\Tadpole\2yoRETRIEVAL\Retrieval_10.csv,111,1,2,12,16.01,retrieval,2,2,"airplane_helicopter.bmp",2942,True,61362,146,172,"airplane_helicopter.bmp",2959,"blacksquare.bmp",1153,
2/16/2016,11:35,C:\Documents and Settings\lab\Desktop\Tadpole\2yoRETRIEVAL\Retrieval_10.csv,111,1,2,12,16.02,retrieval,57,SPACE,"blacksquare.bmp",1147,True,61362,146,172,"airplane_helicopter.bmp",2959,"blacksquare.bmp",1153,
2/16/2016,11:35,C:\Documents and Settings\lab\Desktop\Tadpole\2yoRETRIEVAL\Retrieval_10.csv,111,1,2,13,17.01,retrieval,1,1,"strawberry_banana.bmp",3020,True,65646,186,214,"strawberry_banana.bmp",3039,"blacksquare.bmp",937,
2/16/2016,11:35,C:\Documents and Settings\lab\Desktop\Tadpole\2yoRETRIEVAL\Retrieval_10.csv,111,1,2,13,17.02,retrieval,57,SPACE,"blacksquare.bmp",928,True,65646,186,214,"strawberry_banana.bmp",3039,"blacksquare.bmp",937,
2/16/2016,11:35,C:\Documents and Settings\lab\Desktop\Tadpole\2yoRETRIEVAL\Retrieval_10.csv,111,1,2,14,18.01,retrieval,2,2,"grapes_peach.bmp",2494,True,69836,174,200,"grapes_peach.bmp",2517,"blacksquare.bmp",1019,
2/16/2016,11:35,C:\Documents and Settings\lab\Desktop\Tadpole\2yoRETRIEVAL\Retrieval_10.csv,111,1,2,14,18.02,retrieval,57,SPACE,"blacksquare.bmp",1006,True,69836,174,200,"grapes_peach.bmp",2517,"blacksquare.bmp",1019,
2/16/2016,11:35,C:\Documents and Settings\lab\Desktop\Tadpole\2yoRETRIEVAL\Retrieval_10.csv,111,1,2,15,19.01,retrieval,1,1,"lamp_television.bmp",2891,True,73572,146,173,"lamp_television.bmp",2906,"blacksquare.bmp",1085,
2/16/2016,11:35,C:\Documents and Settings\lab\Desktop\Tadpole\2yoRETRIEVAL\Retrieval_10.csv,111,1,2,15,19.02,retrieval,57,SPACE,"blacksquare.bmp",1071,True,73572,146,173,"lamp_television.bmp",2906,"blacksquare.bmp",1085,
2/16/2016,11:35,C:\Documents and Settings\lab\Desktop\Tadpole\2yoRETRIEVAL\Retrieval_10.csv,111,1,2,16,20.01,retrieval,2,2,"apple_pear.bmp",2713,True,77736,146,172,"apple_pear.bmp",2732,"blacksquare.bmp",965,
2/16/2016,11:35,C:\Documents and Settings\lab\Desktop\Tadpole\2yoRETRIEVAL\Retrieval_10.csv,111,1,2,16,20.02,retrieval,57,SPACE,"blacksquare.bmp",958,True,77736,146,172,"apple_pear.bmp",2732,"blacksquare.bmp",965,
2/16/2016,11:35,C:\Documents and Settings\lab\Desktop\Tadpole\2yoRETRIEVAL\Retrieval_10.csv,111,1,2,17,21.01,retrieval,1,1,"cat_dog.bmp",2205,True,81605,146,174,"cat_dog.bmp",2221,"blacksquare.bmp",805,
2/16/2016,11:35,C:\Documents and Settings\lab\Desktop\Tadpole\2yoRETRIEVAL\Retrieval_10.csv,111,1,2,17,21.02,retrieval,57,SPACE,"blacksquare.bmp",802,True,81605,146,174,"cat_dog.bmp",2221,"blacksquare.bmp",805,
2/16/2016,11:35,C:\Documents and Settings\lab\Desktop\Tadpole\2yoRETRIEVAL\Retrieval_10.csv,111,1,2,18,22.01,retrieval,2,2,"ladder_dresser.bmp",2914,True,84805,160,186,"ladder_dresser.bmp",2932,"blacksquare.bmp",965,
2/16/2016,11:35,C:\Documents and Settings\lab\Desktop\Tadpole\2yoRETRIEVAL\Retrieval_10.csv,111,1,2,18,22.02,retrieval,57,SPACE,"blacksquare.bmp",955,True,84805,160,186,"ladder_dresser.bmp",2932,"blacksquare.bmp",965,
2/16/2016,11:35,C:\Documents and Settings\lab\Desktop\Tadpole\2yoRETRIEVAL\Retrieval_10.csv,111,1,2,19,23.01,retrieval,1,1,"mitten_glasses.bmp",2053,False,88888,214,240,"mitten_glasses.bmp",2075,"blacksquare.bmp",952,
2/16/2016,11:35,C:\Documents and Settings\lab\Desktop\Tadpole\2yoRETRIEVAL\Retrieval_10.csv,111,1,2,19,23.02,retrieval,57,SPACE,"blacksquare.bmp",951,True,88888,214,240,"mitten_glasses.bmp",2075,"blacksquare.bmp",952,
2/16/2016,11:35,C:\Documents and Settings\lab\Desktop\Tadpole\2yoRETRIEVAL\Retrieval_10.csv,111,1,2,20,24.01,retrieval,1,1,"butterfly_ant.bmp",2445,True,92155,120,147,"butterfly_ant.bmp",2463,"blacksquare.bmp",1005,
2/16/2016,11:35,C:\Documents and Settings\lab\Desktop\Tadpole\2yoRETRIEVAL\Retrieval_10.csv,111,1,2,20,24.02,retrieval,57,SPACE,"blacksquare.bmp",1000,True,92155,120,147,"butterfly_ant.bmp",2463,"blacksquare.bmp",1005,
2/16/2016,11:35,C:\Documents and Settings\lab\Desktop\Tadpole\2yoRETRIEVAL\Retrieval_10.csv,111,1,2,21,25.01,retrieval,1,1,"cow_horse.bmp",1988,True,95770,160,186,"cow_horse.bmp",2009,"whiteborder.bmp",684,
2/16/2016,11:35,C:\Documents and Settings\lab\Desktop\Tadpole\2yoRETRIEVAL\Retrieval_10.csv,111,1,2,21,25.02,retrieval,57,SPACE,"whiteborder.bmp",677,True,95770,160,186,"cow_horse.bmp",2009,"whiteborder.bmp",684,
