Date,Time,File,Subj,Cond,Block,Trial,Order,task,Resp,Name,Stim,RT,Correct,Started@,LoadTime,TotalInt,Stim 1,Time 1,Stim 2,Time 2,
12/20/2016,14:01,C:\Documents and Settings\lab\Desktop\Tadpole\2yoRETRIEVAL\Retrieval_4.csv,153,1,2,1,5.01,encode,57,SPACE,"press spacebar to start retrieval task",3196,True,51955,26,52,"press spacebar to start retrieval task",3200,
12/20/2016,14:01,C:\Documents and Settings\lab\Desktop\Tadpole\2yoRETRIEVAL\Retrieval_4.csv,153,1,2,2,6.01,retrieval,1,1,"lion_bear.bmp",1645,True,55207,161,188,"lion_bear.bmp",1660,"blacksquare.bmp",2478,
12/20/2016,14:01,C:\Documents and Settings\lab\Desktop\Tadpole\2yoRETRIEVAL\Retrieval_4.csv,153,1,2,2,6.02,retrieval,57,SPACE,"blacksquare.bmp",2471,True,55207,161,188,"lion_bear.bmp",1660,"blacksquare.bmp",2478,
12/20/2016,14:01,C:\Documents and Settings\lab\Desktop\Tadpole\2yoRETRIEVAL\Retrieval_4.csv,153,1,2,3,7.01,retrieval,2,2,"lips_ear.bmp",4893,False,59533,226,254,"lips_ear.bmp",4913,"blacksquare.bmp",2276,
12/20/2016,14:01,C:\Documents and Settings\lab\Desktop\Tadpole\2yoRETRIEVAL\Retrieval_4.csv,153,1,2,3,7.02,retrieval,57,SPACE,"blacksquare.bmp",2267,True,59533,226,254,"lips_ear.bmp",4913,"blacksquare.bmp",2276,
12/20/2016,14:01,C:\Documents and Settings\lab\Desktop\Tadpole\2yoRETRIEVAL\Retrieval_4.csv,153,1,2,4,8.01,retrieval,1,1,"shirt_cap.bmp",1261,False,66976,174,201,"shirt_cap.bmp",1285,"blacksquare.bmp",2544,
12/20/2016,14:01,C:\Documents and Settings\lab\Desktop\Tadpole\2yoRETRIEVAL\Retrieval_4.csv,153,1,2,4,8.02,retrieval,57,SPACE,"blacksquare.bmp",2540,True,66976,174,201,"shirt_cap.bmp",1285,"blacksquare.bmp",2544,
12/20/2016,14:01,C:\Documents and Settings\lab\Desktop\Tadpole\2yoRETRIEVAL\Retrieval_4.csv,153,1,2,5,9.01,retrieval,1,1,"mouse_squirrel.bmp",1232,True,71006,200,228,"mouse_squirrel.bmp",1258,"blacksquare.bmp",2237,
12/20/2016,14:01,C:\Documents and Settings\lab\Desktop\Tadpole\2yoRETRIEVAL\Retrieval_4.csv,153,1,2,5,9.02,retrieval,57,SPACE,"blacksquare.bmp",2226,True,71006,200,228,"mouse_squirrel.bmp",1258,"blacksquare.bmp",2237,
12/20/2016,14:01,C:\Documents and Settings\lab\Desktop\Tadpole\2yoRETRIEVAL\Retrieval_4.csv,153,1,2,6,10.01,retrieval,1,1,"scissors_brush.bmp",1418,False,74729,159,186,"scissors_brush.bmp",1433,"blacksquare.bmp",2785,
12/20/2016,14:01,C:\Documents and Settings\lab\Desktop\Tadpole\2yoRETRIEVAL\Retrieval_4.csv,153,1,2,6,10.02,retrieval,57,SPACE,"blacksquare.bmp",2774,True,74729,159,186,"scissors_brush.bmp",1433,"blacksquare.bmp",2785,
12/20/2016,14:01,C:\Documents and Settings\lab\Desktop\Tadpole\2yoRETRIEVAL\Retrieval_4.csv,153,1,2,7,11.01,retrieval,1,1,"duck_frog.bmp",1695,False,79133,174,200,"duck_frog.bmp",1714,"blacksquare.bmp",2129,
12/20/2016,14:01,C:\Documents and Settings\lab\Desktop\Tadpole\2yoRETRIEVAL\Retrieval_4.csv,153,1,2,7,11.02,retrieval,57,SPACE,"blacksquare.bmp",2118,True,79133,174,200,"duck_frog.bmp",1714,"blacksquare.bmp",2129,
12/20/2016,14:01,C:\Documents and Settings\lab\Desktop\Tadpole\2yoRETRIEVAL\Retrieval_4.csv,153,1,2,8,12.01,retrieval,2,2,"sun_tree.bmp",2970,False,83176,160,188,"sun_tree.bmp",2985,"blacksquare.bmp",2665,
12/20/2016,14:01,C:\Documents and Settings\lab\Desktop\Tadpole\2yoRETRIEVAL\Retrieval_4.csv,153,1,2,8,12.02,retrieval,57,SPACE,"blacksquare.bmp",2658,True,83176,160,188,"sun_tree.bmp",2985,"blacksquare.bmp",2665,
12/20/2016,14:01,C:\Documents and Settings\lab\Desktop\Tadpole\2yoRETRIEVAL\Retrieval_4.csv,153,1,2,9,13.01,retrieval,1,1,"glass_bowl.bmp",19214,False,89014,174,200,"glass_bowl.bmp",19240,"blacksquare.bmp",1794,
12/20/2016,14:01,C:\Documents and Settings\lab\Desktop\Tadpole\2yoRETRIEVAL\Retrieval_4.csv,153,1,2,9,13.02,retrieval,57,SPACE,"blacksquare.bmp",1787,True,89014,174,200,"glass_bowl.bmp",19240,"blacksquare.bmp",1794,
12/20/2016,14:01,C:\Documents and Settings\lab\Desktop\Tadpole\2yoRETRIEVAL\Retrieval_4.csv,153,1,2,10,14.01,retrieval,1,1,"nail_pencil.bmp",3446,True,110248,576,602,"nail_pencil.bmp",3468,"blacksquare.bmp",1821,
12/20/2016,14:01,C:\Documents and Settings\lab\Desktop\Tadpole\2yoRETRIEVAL\Retrieval_4.csv,153,1,2,10,14.02,retrieval,57,SPACE,"blacksquare.bmp",1813,True,110248,576,602,"nail_pencil.bmp",3468,"blacksquare.bmp",1821,
12/20/2016,14:01,C:\Documents and Settings\lab\Desktop\Tadpole\2yoRETRIEVAL\Retrieval_4.csv,153,1,2,11,15.01,retrieval,1,1,"leg_arm.bmp",1579,False,116139,254,281,"leg_arm.bmp",1593,"whiteborder.bmp",3522,
12/20/2016,14:01,C:\Documents and Settings\lab\Desktop\Tadpole\2yoRETRIEVAL\Retrieval_4.csv,153,1,2,11,15.02,retrieval,57,SPACE,"whiteborder.bmp",3521,True,116139,254,281,"leg_arm.bmp",1593,"whiteborder.bmp",3522,
12/20/2016,14:01,C:\Documents and Settings\lab\Desktop\Tadpole\2yoRETRIEVAL\Retrieval_4.csv,153,1,2,12,16.01,retrieval,1,1,"flower_leaf.bmp",2095,False,121535,147,173,"flower_leaf.bmp",2116,"blacksquare.bmp",2371,
12/20/2016,14:01,C:\Documents and Settings\lab\Desktop\Tadpole\2yoRETRIEVAL\Retrieval_4.csv,153,1,2,12,16.02,retrieval,57,SPACE,"blacksquare.bmp",2369,True,121535,147,173,"flower_leaf.bmp",2116,"blacksquare.bmp",2371,
12/20/2016,14:01,C:\Documents and Settings\lab\Desktop\Tadpole\2yoRETRIEVAL\Retrieval_4.csv,153,1,2,13,17.01,retrieval,2,2,"hair_hat.bmp",2893,False,126195,146,173,"hair_hat.bmp",2919,"blacksquare.bmp",2290,
12/20/2016,14:01,C:\Documents and Settings\lab\Desktop\Tadpole\2yoRETRIEVAL\Retrieval_4.csv,153,1,2,13,17.02,retrieval,57,SPACE,"blacksquare.bmp",2285,True,126195,146,173,"hair_hat.bmp",2919,"blacksquare.bmp",2290,
12/20/2016,14:01,C:\Documents and Settings\lab\Desktop\Tadpole\2yoRETRIEVAL\Retrieval_4.csv,153,1,2,14,18.01,retrieval,1,1,"watermelon_orange.bmp",2311,False,131577,226,254,"watermelon_orange.bmp",2329,"blacksquare.bmp",2786,
12/20/2016,14:01,C:\Documents and Settings\lab\Desktop\Tadpole\2yoRETRIEVAL\Retrieval_4.csv,153,1,2,14,18.02,retrieval,57,SPACE,"blacksquare.bmp",2774,True,131577,226,254,"watermelon_orange.bmp",2329,"blacksquare.bmp",2786,
12/20/2016,14:01,C:\Documents and Settings\lab\Desktop\Tadpole\2yoRETRIEVAL\Retrieval_4.csv,153,1,2,15,19.01,retrieval,2,2,"ball_drum.bmp",32118,False,136946,173,200,"ball_drum.bmp",32133,"blacksquare.bmp",2396,
12/20/2016,14:01,C:\Documents and Settings\lab\Desktop\Tadpole\2yoRETRIEVAL\Retrieval_4.csv,153,1,2,15,19.02,retrieval,57,SPACE,"blacksquare.bmp",2384,True,136946,173,200,"ball_drum.bmp",32133,"blacksquare.bmp",2396,
12/20/2016,14:01,C:\Documents and Settings\lab\Desktop\Tadpole\2yoRETRIEVAL\Retrieval_4.csv,153,1,2,16,20.01,retrieval,1,1,"garbagecan_box.bmp",1818,False,171675,589,615,"garbagecan_box.bmp",1835,"blacksquare.bmp",2397,
12/20/2016,14:01,C:\Documents and Settings\lab\Desktop\Tadpole\2yoRETRIEVAL\Retrieval_4.csv,153,1,2,16,20.02,retrieval,57,SPACE,"blacksquare.bmp",2397,True,171675,589,615,"garbagecan_box.bmp",1835,"blacksquare.bmp",2397,
12/20/2016,14:01,C:\Documents and Settings\lab\Desktop\Tadpole\2yoRETRIEVAL\Retrieval_4.csv,153,1,2,17,21.01,retrieval,2,2,"lettuce_corn.bmp",2032,False,176522,146,174,"lettuce_corn.bmp",2048,"blacksquare.bmp",1848,
12/20/2016,14:01,C:\Documents and Settings\lab\Desktop\Tadpole\2yoRETRIEVAL\Retrieval_4.csv,153,1,2,17,21.02,retrieval,57,SPACE,"blacksquare.bmp",1837,True,176522,146,174,"lettuce_corn.bmp",2048,"blacksquare.bmp",1848,
12/20/2016,14:01,C:\Documents and Settings\lab\Desktop\Tadpole\2yoRETRIEVAL\Retrieval_4.csv,153,1,2,18,22.01,retrieval,2,2,"knife_key.bmp",946,True,180592,160,187,"knife_key.bmp",964,"blacksquare.bmp",1607,
12/20/2016,14:01,C:\Documents and Settings\lab\Desktop\Tadpole\2yoRETRIEVAL\Retrieval_4.csv,153,1,2,18,22.02,retrieval,57,SPACE,"blacksquare.bmp",1602,True,180592,160,187,"knife_key.bmp",964,"blacksquare.bmp",1607,
12/20/2016,14:01,C:\Documents and Settings\lab\Desktop\Tadpole\2yoRETRIEVAL\Retrieval_4.csv,153,1,2,19,23.01,retrieval,2,2,"hand_foot.bmp",1136,True,183350,160,188,"hand_foot.bmp",1151,"blacksquare.bmp",1700,
12/20/2016,14:01,C:\Documents and Settings\lab\Desktop\Tadpole\2yoRETRIEVAL\Retrieval_4.csv,153,1,2,19,23.02,retrieval,57,SPACE,"blacksquare.bmp",1693,True,183350,160,188,"hand_foot.bmp",1151,"blacksquare.bmp",1700,
12/20/2016,14:01,C:\Documents and Settings\lab\Desktop\Tadpole\2yoRETRIEVAL\Retrieval_4.csv,153,1,2,20,24.01,retrieval,1,1,"star_cloud.bmp",3735,True,186389,134,160,"star_cloud.bmp",3749,"blacksquare.bmp",18303,
12/20/2016,14:01,C:\Documents and Settings\lab\Desktop\Tadpole\2yoRETRIEVAL\Retrieval_4.csv,153,1,2,20,24.02,retrieval,57,SPACE,"blacksquare.bmp",18292,True,186389,134,160,"star_cloud.bmp",3749,"blacksquare.bmp",18303,
12/20/2016,14:01,C:\Documents and Settings\lab\Desktop\Tadpole\2yoRETRIEVAL\Retrieval_4.csv,153,1,2,21,25.01,retrieval,1,1,"ring_watch.bmp",7780,True,208601,509,535,"ring_watch.bmp",7806,"whiteborder.bmp",2196,
12/20/2016,14:01,C:\Documents and Settings\lab\Desktop\Tadpole\2yoRETRIEVAL\Retrieval_4.csv,153,1,2,21,25.02,retrieval,57,SPACE,"whiteborder.bmp",2183,True,208601,509,535,"ring_watch.bmp",7806,"whiteborder.bmp",2196,
