Date,Time,File,Subj,Cond,Block,Trial,Order,task,Resp,Name,Stim,RT,Correct,Started@,LoadTime,TotalInt,Stim 1,Time 1,Stim 2,Time 2,Stim 3,Time 3,
8/7/2014,14:20,C:\Documents and Settings\lab\Desktop\Tadpole\2yoRETRIEVAL\Tadpole_Memory_2a_Retrieval.csv,15,1,2,1,1.01,encode,57,SPACE,"press spacebar to start retrieval task",2563,True,0,28,55,"press spacebar to start retrieval task",2571,
8/7/2014,14:20,C:\Documents and Settings\lab\Desktop\Tadpole\2yoRETRIEVAL\Tadpole_Memory_2a_Retrieval.csv,15,1,1,2,2.01,encode,57,SPACE,"blacksquare.bmp",7713,True,2626,829,856," Jackie3.avi (848x489)",40,"Jackie_3.mpg (848x489)",2999,"blacksquare.bmp",7726,
8/7/2014,14:20,C:\Documents and Settings\lab\Desktop\Tadpole\2yoRETRIEVAL\Tadpole_Memory_2a_Retrieval.csv,15,1,2,2,3.01,retrieval,1,1,"nail_pencil.bmp",4057,True,14247,174,200,"nail_pencil.bmp",4070,"blacksquare.bmp",3563,
8/7/2014,14:20,C:\Documents and Settings\lab\Desktop\Tadpole\2yoRETRIEVAL\Tadpole_Memory_2a_Retrieval.csv,15,1,2,2,3.02,retrieval,57,SPACE,"blacksquare.bmp",3554,True,14247,174,200,"nail_pencil.bmp",4070,"blacksquare.bmp",3563,
8/7/2014,14:20,C:\Documents and Settings\lab\Desktop\Tadpole\2yoRETRIEVAL\Tadpole_Memory_2a_Retrieval.csv,15,1,2,3,4.01,retrieval,1,1,"stove_refrigerator.bmp",1477,False,22080,173,200,"stove_refrigerator.bmp",1499,"blacksquare.bmp",4004,
8/7/2014,14:20,C:\Documents and Settings\lab\Desktop\Tadpole\2yoRETRIEVAL\Tadpole_Memory_2a_Retrieval.csv,15,1,2,3,4.02,retrieval,57,SPACE,"blacksquare.bmp",3991,True,22080,173,200,"stove_refrigerator.bmp",1499,"blacksquare.bmp",4004,
8/7/2014,14:20,C:\Documents and Settings\lab\Desktop\Tadpole\2yoRETRIEVAL\Tadpole_Memory_2a_Retrieval.csv,15,1,2,4,5.01,retrieval,2,2,"glass_bowl.bmp",1070,True,27783,147,174,"glass_bowl.bmp",1084,"blacksquare.bmp",4125,
8/7/2014,14:20,C:\Documents and Settings\lab\Desktop\Tadpole\2yoRETRIEVAL\Tadpole_Memory_2a_Retrieval.csv,15,1,2,4,5.02,retrieval,57,SPACE,"blacksquare.bmp",4117,True,27783,147,174,"glass_bowl.bmp",1084,"blacksquare.bmp",4125,
8/7/2014,14:20,C:\Documents and Settings\lab\Desktop\Tadpole\2yoRETRIEVAL\Tadpole_Memory_2a_Retrieval.csv,15,1,2,5,6.01,retrieval,1,1,"wheel_window.bmp",1257,True,33166,146,173,"wheel_window.bmp",1272,"blacksquare.bmp",3468,
8/7/2014,14:20,C:\Documents and Settings\lab\Desktop\Tadpole\2yoRETRIEVAL\Tadpole_Memory_2a_Retrieval.csv,15,1,2,5,6.02,retrieval,57,SPACE,"blacksquare.bmp",3461,True,33166,146,173,"wheel_window.bmp",1272,"blacksquare.bmp",3468,
8/7/2014,14:20,C:\Documents and Settings\lab\Desktop\Tadpole\2yoRETRIEVAL\Tadpole_Memory_2a_Retrieval.csv,15,1,2,6,7.01,retrieval,1,1,"lips_ear.bmp",1319,False,38079,134,160,"lips_ear.bmp",1339,"blacksquare.bmp",4164,
8/7/2014,14:20,C:\Documents and Settings\lab\Desktop\Tadpole\2yoRETRIEVAL\Tadpole_Memory_2a_Retrieval.csv,15,1,2,6,7.02,retrieval,57,SPACE,"blacksquare.bmp",4153,True,38079,134,160,"lips_ear.bmp",1339,"blacksquare.bmp",4164,
8/7/2014,14:20,C:\Documents and Settings\lab\Desktop\Tadpole\2yoRETRIEVAL\Tadpole_Memory_2a_Retrieval.csv,15,1,2,7,8.01,retrieval,1,1,"bread_potato.bmp",3248,True,43742,148,174,"bread_potato.bmp",3267,"blacksquare.bmp",951,
8/7/2014,14:20,C:\Documents and Settings\lab\Desktop\Tadpole\2yoRETRIEVAL\Tadpole_Memory_2a_Retrieval.csv,15,1,2,7,8.02,retrieval,57,SPACE,"blacksquare.bmp",942,True,43742,148,174,"bread_potato.bmp",3267,"blacksquare.bmp",951,
8/7/2014,14:20,C:\Documents and Settings\lab\Desktop\Tadpole\2yoRETRIEVAL\Tadpole_Memory_2a_Retrieval.csv,15,1,2,8,9.01,retrieval,2,2,"ring_watch.bmp",3277,True,48134,120,147,"ring_watch.bmp",3293,"blacksquare.bmp",4232,
8/7/2014,14:20,C:\Documents and Settings\lab\Desktop\Tadpole\2yoRETRIEVAL\Tadpole_Memory_2a_Retrieval.csv,15,1,2,8,9.02,retrieval,57,SPACE,"blacksquare.bmp",4228,True,48134,120,147,"ring_watch.bmp",3293,"blacksquare.bmp",4232,
8/7/2014,14:20,C:\Documents and Settings\lab\Desktop\Tadpole\2yoRETRIEVAL\Tadpole_Memory_2a_Retrieval.csv,15,1,2,9,10.01,retrieval,1,1,"eye_nose.bmp",1683,True,55806,187,213,"eye_nose.bmp",1701,"blacksquare.bmp",3682,
8/7/2014,14:20,C:\Documents and Settings\lab\Desktop\Tadpole\2yoRETRIEVAL\Tadpole_Memory_2a_Retrieval.csv,15,1,2,9,10.02,retrieval,57,SPACE,"blacksquare.bmp",3669,True,55806,187,213,"eye_nose.bmp",1701,"blacksquare.bmp",3682,
8/7/2014,14:20,C:\Documents and Settings\lab\Desktop\Tadpole\2yoRETRIEVAL\Tadpole_Memory_2a_Retrieval.csv,15,1,2,10,11.01,retrieval,2,2,"strawberry_banana.bmp",1766,False,61402,147,174,"strawberry_banana.bmp",1780,"blacksquare.bmp",3603,
8/7/2014,14:20,C:\Documents and Settings\lab\Desktop\Tadpole\2yoRETRIEVAL\Tadpole_Memory_2a_Retrieval.csv,15,1,2,10,11.02,retrieval,57,SPACE,"blacksquare.bmp",3596,True,61402,147,174,"strawberry_banana.bmp",1780,"blacksquare.bmp",3603,
8/7/2014,14:20,C:\Documents and Settings\lab\Desktop\Tadpole\2yoRETRIEVAL\Tadpole_Memory_2a_Retrieval.csv,15,1,2,11,12.01,retrieval,1,1,"airplane_helicopter.bmp",1823,False,66959,388,414,"airplane_helicopter.bmp",1848,"whiteborder.bmp",1674,
8/7/2014,14:20,C:\Documents and Settings\lab\Desktop\Tadpole\2yoRETRIEVAL\Tadpole_Memory_2a_Retrieval.csv,15,1,2,11,12.02,retrieval,57,SPACE,"whiteborder.bmp",1669,True,66959,388,414,"airplane_helicopter.bmp",1848,"whiteborder.bmp",1674,
8/7/2014,14:20,C:\Documents and Settings\lab\Desktop\Tadpole\2yoRETRIEVAL\Tadpole_Memory_2a_Retrieval.csv,15,1,1,2,13.01,encode,57,SPACE,"blacksquare.bmp",3910,True,70895,455,482," Jackie3.avi (848x489)",40,"Jackie_3.mpg (848x489)",2999,"blacksquare.bmp",3923,
8/7/2014,14:20,C:\Documents and Settings\lab\Desktop\Tadpole\2yoRETRIEVAL\Tadpole_Memory_2a_Retrieval.csv,15,1,2,12,14.01,retrieval,2,2,"bird_turtle.bmp",1219,False,78339,160,187,"bird_turtle.bmp",1245,"blacksquare.bmp",3736,
8/7/2014,14:20,C:\Documents and Settings\lab\Desktop\Tadpole\2yoRETRIEVAL\Tadpole_Memory_2a_Retrieval.csv,15,1,2,12,14.02,retrieval,57,SPACE,"blacksquare.bmp",3726,True,78339,160,187,"bird_turtle.bmp",1245,"blacksquare.bmp",3736,
8/7/2014,14:20,C:\Documents and Settings\lab\Desktop\Tadpole\2yoRETRIEVAL\Tadpole_Memory_2a_Retrieval.csv,15,1,2,13,15.01,retrieval,1,1,"truck_car.bmp",1503,True,83507,147,174,"truck_car.bmp",1526,"blacksquare.bmp",3683,
8/7/2014,14:20,C:\Documents and Settings\lab\Desktop\Tadpole\2yoRETRIEVAL\Tadpole_Memory_2a_Retrieval.csv,15,1,2,13,15.02,retrieval,57,SPACE,"blacksquare.bmp",3677,True,83507,147,174,"truck_car.bmp",1526,"blacksquare.bmp",3683,
8/7/2014,14:20,C:\Documents and Settings\lab\Desktop\Tadpole\2yoRETRIEVAL\Tadpole_Memory_2a_Retrieval.csv,15,1,2,14,16.01,retrieval,2,2,"sun_tree.bmp",954,True,88890,146,173,"sun_tree.bmp",977,"blacksquare.bmp",7659,
8/7/2014,14:20,C:\Documents and Settings\lab\Desktop\Tadpole\2yoRETRIEVAL\Tadpole_Memory_2a_Retrieval.csv,15,1,2,14,16.02,retrieval,57,SPACE,"blacksquare.bmp",7649,True,88890,146,173,"sun_tree.bmp",977,"blacksquare.bmp",7659,
8/7/2014,14:20,C:\Documents and Settings\lab\Desktop\Tadpole\2yoRETRIEVAL\Tadpole_Memory_2a_Retrieval.csv,15,1,2,15,17.01,retrieval,1,1,"snowman_clown.bmp",3449,False,97699,174,200,"snowman_clown.bmp",3468,"blacksquare.bmp",2611,
8/7/2014,14:20,C:\Documents and Settings\lab\Desktop\Tadpole\2yoRETRIEVAL\Tadpole_Memory_2a_Retrieval.csv,15,1,2,15,17.02,retrieval,57,SPACE,"blacksquare.bmp",2607,True,97699,174,200,"snowman_clown.bmp",3468,"blacksquare.bmp",2611,
8/7/2014,14:20,C:\Documents and Settings\lab\Desktop\Tadpole\2yoRETRIEVAL\Tadpole_Memory_2a_Retrieval.csv,15,1,2,16,18.01,retrieval,1,1,"chicken_rabbit.bmp",3622,True,103978,228,254,"chicken_rabbit.bmp",3642,"blacksquare.bmp",3763,
8/7/2014,14:20,C:\Documents and Settings\lab\Desktop\Tadpole\2yoRETRIEVAL\Tadpole_Memory_2a_Retrieval.csv,15,1,2,16,18.02,retrieval,57,SPACE,"blacksquare.bmp",3752,True,103978,228,254,"chicken_rabbit.bmp",3642,"blacksquare.bmp",3763,
8/7/2014,14:20,C:\Documents and Settings\lab\Desktop\Tadpole\2yoRETRIEVAL\Tadpole_Memory_2a_Retrieval.csv,15,1,2,17,19.01,retrieval,1,1,"watermelon_orange.bmp",988,False,111637,133,160,"watermelon_orange.bmp",1004,"blacksquare.bmp",4085,
8/7/2014,14:20,C:\Documents and Settings\lab\Desktop\Tadpole\2yoRETRIEVAL\Tadpole_Memory_2a_Retrieval.csv,15,1,2,17,19.02,retrieval,57,SPACE,"blacksquare.bmp",4084,True,111637,133,160,"watermelon_orange.bmp",1004,"blacksquare.bmp",4085,
8/7/2014,14:20,C:\Documents and Settings\lab\Desktop\Tadpole\2yoRETRIEVAL\Tadpole_Memory_2a_Retrieval.csv,15,1,2,18,20.01,retrieval,2,2,"sailboat_bicycle.bmp",1221,False,116886,132,160,"sailboat_bicycle.bmp",1245,"blacksquare.bmp",4097,
8/7/2014,14:20,C:\Documents and Settings\lab\Desktop\Tadpole\2yoRETRIEVAL\Tadpole_Memory_2a_Retrieval.csv,15,1,2,18,20.02,retrieval,57,SPACE,"blacksquare.bmp",4085,True,116886,132,160,"sailboat_bicycle.bmp",1245,"blacksquare.bmp",4097,
8/7/2014,14:20,C:\Documents and Settings\lab\Desktop\Tadpole\2yoRETRIEVAL\Tadpole_Memory_2a_Retrieval.csv,15,1,2,19,21.01,retrieval,2,2,"table_chair.bmp",1272,True,122388,133,160,"table_chair.bmp",1286,"blacksquare.bmp",3669,
8/7/2014,14:20,C:\Documents and Settings\lab\Desktop\Tadpole\2yoRETRIEVAL\Tadpole_Memory_2a_Retrieval.csv,15,1,2,19,21.02,retrieval,57,SPACE,"blacksquare.bmp",3656,True,122388,133,160,"table_chair.bmp",1286,"blacksquare.bmp",3669,
8/7/2014,14:20,C:\Documents and Settings\lab\Desktop\Tadpole\2yoRETRIEVAL\Tadpole_Memory_2a_Retrieval.csv,15,1,2,20,22.01,retrieval,2,2,"apple_pear.bmp",1225,True,127503,146,173,"apple_pear.bmp",1245,"blacksquare.bmp",4071,
8/7/2014,14:20,C:\Documents and Settings\lab\Desktop\Tadpole\2yoRETRIEVAL\Tadpole_Memory_2a_Retrieval.csv,15,1,2,20,22.02,retrieval,57,SPACE,"blacksquare.bmp",4068,True,127503,146,173,"apple_pear.bmp",1245,"blacksquare.bmp",4071,
8/7/2014,14:20,C:\Documents and Settings\lab\Desktop\Tadpole\2yoRETRIEVAL\Tadpole_Memory_2a_Retrieval.csv,15,1,2,21,23.01,retrieval,1,1,"lion_bear.bmp",1256,True,132992,120,147,"lion_bear.bmp",1271,"whiteborder.bmp",831,
8/7/2014,14:20,C:\Documents and Settings\lab\Desktop\Tadpole\2yoRETRIEVAL\Tadpole_Memory_2a_Retrieval.csv,15,1,2,21,23.02,retrieval,57,SPACE,"whiteborder.bmp",827,True,132992,120,147,"lion_bear.bmp",1271,"whiteborder.bmp",831,
