Date,Time,File,Subj,Cond,Block,Trial,Order,task,Resp,Name,Stim,RT,Correct,Started@,LoadTime,TotalInt,Stim 1,Time 1,Stim 2,Time 2,
3/1/2017,13:08,C:\Documents and Settings\lab\Desktop\Tadpole\2yoRETRIEVAL\Retrieval_8.csv,164,1,2,1,5.01,encode,57,SPACE,"press spacebar to start retrieval task",6419,True,24837,26,54,"press spacebar to start retrieval task",6427,
3/1/2017,13:08,C:\Documents and Settings\lab\Desktop\Tadpole\2yoRETRIEVAL\Retrieval_8.csv,164,1,2,2,6.01,retrieval,1,1,"toe_finger.bmp",4292,True,31318,173,200,"toe_finger.bmp",4311,"blacksquare.bmp",1045,
3/1/2017,13:08,C:\Documents and Settings\lab\Desktop\Tadpole\2yoRETRIEVAL\Retrieval_8.csv,164,1,2,2,6.02,retrieval,57,SPACE,"blacksquare.bmp",1043,True,31318,173,200,"toe_finger.bmp",4311,"blacksquare.bmp",1045,
3/1/2017,13:08,C:\Documents and Settings\lab\Desktop\Tadpole\2yoRETRIEVAL\Retrieval_8.csv,164,1,2,3,7.01,retrieval,1,1,"snowman_clown.bmp",3427,True,36874,173,200,"snowman_clown.bmp",3441,"blacksquare.bmp",911,
3/1/2017,13:08,C:\Documents and Settings\lab\Desktop\Tadpole\2yoRETRIEVAL\Retrieval_8.csv,164,1,2,3,7.02,retrieval,57,SPACE,"blacksquare.bmp",905,True,36874,173,200,"snowman_clown.bmp",3441,"blacksquare.bmp",911,
3/1/2017,13:08,C:\Documents and Settings\lab\Desktop\Tadpole\2yoRETRIEVAL\Retrieval_8.csv,164,1,2,4,8.01,retrieval,2,2,"swing_door.bmp",1721,True,41426,146,174,"swing_door.bmp",1740,"blacksquare.bmp",724,
3/1/2017,13:08,C:\Documents and Settings\lab\Desktop\Tadpole\2yoRETRIEVAL\Retrieval_8.csv,164,1,2,4,8.02,retrieval,57,SPACE,"blacksquare.bmp",716,True,41426,146,174,"swing_door.bmp",1740,"blacksquare.bmp",724,
3/1/2017,13:08,C:\Documents and Settings\lab\Desktop\Tadpole\2yoRETRIEVAL\Retrieval_8.csv,164,1,2,5,9.01,retrieval,1,1,"train_bus.bmp",2762,True,44064,200,226,"train_bus.bmp",2785,"blacksquare.bmp",2117,
3/1/2017,13:08,C:\Documents and Settings\lab\Desktop\Tadpole\2yoRETRIEVAL\Retrieval_8.csv,164,1,2,5,9.02,retrieval,57,SPACE,"blacksquare.bmp",2104,True,44064,200,226,"train_bus.bmp",2785,"blacksquare.bmp",2117,
3/1/2017,13:08,C:\Documents and Settings\lab\Desktop\Tadpole\2yoRETRIEVAL\Retrieval_8.csv,164,1,2,6,10.01,retrieval,2,2,"dress_jacket.bmp",2476,True,49192,160,186,"dress_jacket.bmp",2490,"blacksquare.bmp",1045,
3/1/2017,13:08,C:\Documents and Settings\lab\Desktop\Tadpole\2yoRETRIEVAL\Retrieval_8.csv,164,1,2,6,10.02,retrieval,57,SPACE,"blacksquare.bmp",1034,True,49192,160,186,"dress_jacket.bmp",2490,"blacksquare.bmp",1045,
3/1/2017,13:08,C:\Documents and Settings\lab\Desktop\Tadpole\2yoRETRIEVAL\Retrieval_8.csv,164,1,2,7,11.01,retrieval,2,2,"fish_bee.bmp",3600,True,52913,200,228,"fish_bee.bmp",3614,"blacksquare.bmp",1969,
3/1/2017,13:08,C:\Documents and Settings\lab\Desktop\Tadpole\2yoRETRIEVAL\Retrieval_8.csv,164,1,2,7,11.02,retrieval,57,SPACE,"blacksquare.bmp",1966,True,52913,200,228,"fish_bee.bmp",3614,"blacksquare.bmp",1969,
3/1/2017,13:08,C:\Documents and Settings\lab\Desktop\Tadpole\2yoRETRIEVAL\Retrieval_8.csv,164,1,2,8,12.01,retrieval,2,2,"ostrich_fly.bmp",3409,False,58724,214,241,"ostrich_fly.bmp",3427,"blacksquare.bmp",2263,
3/1/2017,13:08,C:\Documents and Settings\lab\Desktop\Tadpole\2yoRETRIEVAL\Retrieval_8.csv,164,1,2,8,12.02,retrieval,57,SPACE,"blacksquare.bmp",2252,True,58724,214,241,"ostrich_fly.bmp",3427,"blacksquare.bmp",2263,
3/1/2017,13:08,C:\Documents and Settings\lab\Desktop\Tadpole\2yoRETRIEVAL\Retrieval_8.csv,164,1,2,9,13.01,retrieval,2,2,"stove_refrigerator.bmp",1690,True,64655,174,201,"stove_refrigerator.bmp",1713,"blacksquare.bmp",2063,
3/1/2017,13:08,C:\Documents and Settings\lab\Desktop\Tadpole\2yoRETRIEVAL\Retrieval_8.csv,164,1,2,9,13.02,retrieval,57,SPACE,"blacksquare.bmp",2054,True,64655,174,201,"stove_refrigerator.bmp",1713,"blacksquare.bmp",2063,
3/1/2017,13:08,C:\Documents and Settings\lab\Desktop\Tadpole\2yoRETRIEVAL\Retrieval_8.csv,164,1,2,10,14.01,retrieval,2,2,"truck_car.bmp",1498,False,68632,173,200,"truck_car.bmp",1513,"blacksquare.bmp",2705,
3/1/2017,13:08,C:\Documents and Settings\lab\Desktop\Tadpole\2yoRETRIEVAL\Retrieval_8.csv,164,1,2,10,14.02,retrieval,57,SPACE,"blacksquare.bmp",2697,True,68632,173,200,"truck_car.bmp",1513,"blacksquare.bmp",2705,
3/1/2017,13:08,C:\Documents and Settings\lab\Desktop\Tadpole\2yoRETRIEVAL\Retrieval_8.csv,164,1,2,11,15.01,retrieval,2,2,"table_chair.bmp",1216,True,73050,214,240,"table_chair.bmp",1233,"whiteborder.bmp",2048,
3/1/2017,13:08,C:\Documents and Settings\lab\Desktop\Tadpole\2yoRETRIEVAL\Retrieval_8.csv,164,1,2,11,15.02,retrieval,57,SPACE,"whiteborder.bmp",2035,True,73050,214,240,"table_chair.bmp",1233,"whiteborder.bmp",2048,
3/1/2017,13:08,C:\Documents and Settings\lab\Desktop\Tadpole\2yoRETRIEVAL\Retrieval_8.csv,164,1,2,12,16.01,retrieval,2,2,"shoe_boot.bmp",2224,True,76571,147,173,"shoe_boot.bmp",2250,"blacksquare.bmp",3308,
3/1/2017,13:08,C:\Documents and Settings\lab\Desktop\Tadpole\2yoRETRIEVAL\Retrieval_8.csv,164,1,2,12,16.02,retrieval,57,SPACE,"blacksquare.bmp",3294,True,76571,147,173,"shoe_boot.bmp",2250,"blacksquare.bmp",3308,
3/1/2017,13:08,C:\Documents and Settings\lab\Desktop\Tadpole\2yoRETRIEVAL\Retrieval_8.csv,164,1,2,13,17.01,retrieval,2,2,"doorknob_bell.bmp",1698,False,82302,173,200,"doorknob_bell.bmp",1714,"blacksquare.bmp",2570,
3/1/2017,13:08,C:\Documents and Settings\lab\Desktop\Tadpole\2yoRETRIEVAL\Retrieval_8.csv,164,1,2,13,17.02,retrieval,57,SPACE,"blacksquare.bmp",2563,True,82302,173,200,"doorknob_bell.bmp",1714,"blacksquare.bmp",2570,
3/1/2017,13:08,C:\Documents and Settings\lab\Desktop\Tadpole\2yoRETRIEVAL\Retrieval_8.csv,164,1,2,14,18.01,retrieval,2,2,"sailboat_bicycle.bmp",4826,True,86786,188,214,"sailboat_bicycle.bmp",4847,"blacksquare.bmp",1272,
3/1/2017,13:08,C:\Documents and Settings\lab\Desktop\Tadpole\2yoRETRIEVAL\Retrieval_8.csv,164,1,2,14,18.02,retrieval,57,SPACE,"blacksquare.bmp",1263,True,86786,188,214,"sailboat_bicycle.bmp",4847,"blacksquare.bmp",1272,
3/1/2017,13:08,C:\Documents and Settings\lab\Desktop\Tadpole\2yoRETRIEVAL\Retrieval_8.csv,164,1,2,15,19.01,retrieval,2,2,"pig_elephant.bmp",2589,False,93119,148,174,"pig_elephant.bmp",2610,"blacksquare.bmp",5303,
3/1/2017,13:08,C:\Documents and Settings\lab\Desktop\Tadpole\2yoRETRIEVAL\Retrieval_8.csv,164,1,2,15,19.02,retrieval,57,SPACE,"blacksquare.bmp",5296,True,93119,148,174,"pig_elephant.bmp",2610,"blacksquare.bmp",5303,
3/1/2017,13:08,C:\Documents and Settings\lab\Desktop\Tadpole\2yoRETRIEVAL\Retrieval_8.csv,164,1,2,16,20.01,retrieval,1,1,"spoon_fork.bmp",7586,False,101206,147,174,"spoon_fork.bmp",7605,"blacksquare.bmp",924,
3/1/2017,13:08,C:\Documents and Settings\lab\Desktop\Tadpole\2yoRETRIEVAL\Retrieval_8.csv,164,1,2,16,20.02,retrieval,57,SPACE,"blacksquare.bmp",918,True,101206,147,174,"spoon_fork.bmp",7605,"blacksquare.bmp",924,
3/1/2017,13:08,C:\Documents and Settings\lab\Desktop\Tadpole\2yoRETRIEVAL\Retrieval_8.csv,164,1,2,17,21.01,retrieval,1,1,"tiger_alligator.bmp",8053,True,109909,147,173,"tiger_alligator.bmp",8073,"blacksquare.bmp",1206,
3/1/2017,13:08,C:\Documents and Settings\lab\Desktop\Tadpole\2yoRETRIEVAL\Retrieval_8.csv,164,1,2,17,21.02,retrieval,57,SPACE,"blacksquare.bmp",1197,True,109909,147,173,"tiger_alligator.bmp",8073,"blacksquare.bmp",1206,
3/1/2017,13:08,C:\Documents and Settings\lab\Desktop\Tadpole\2yoRETRIEVAL\Retrieval_8.csv,164,1,2,18,22.01,retrieval,2,2,"sheep_monkey.bmp",1772,True,119361,161,187,"sheep_monkey.bmp",1794,"blacksquare.bmp",1434,
3/1/2017,13:08,C:\Documents and Settings\lab\Desktop\Tadpole\2yoRETRIEVAL\Retrieval_8.csv,164,1,2,18,22.02,retrieval,57,SPACE,"blacksquare.bmp",1430,True,119361,161,187,"sheep_monkey.bmp",1794,"blacksquare.bmp",1434,
3/1/2017,13:08,C:\Documents and Settings\lab\Desktop\Tadpole\2yoRETRIEVAL\Retrieval_8.csv,164,1,2,19,23.01,retrieval,2,2,"socks_pants.bmp",1516,True,122776,146,173,"socks_pants.bmp",1539,"blacksquare.bmp",1755,
3/1/2017,13:08,C:\Documents and Settings\lab\Desktop\Tadpole\2yoRETRIEVAL\Retrieval_8.csv,164,1,2,19,23.02,retrieval,57,SPACE,"blacksquare.bmp",1751,True,122776,146,173,"socks_pants.bmp",1539,"blacksquare.bmp",1755,
3/1/2017,13:08,C:\Documents and Settings\lab\Desktop\Tadpole\2yoRETRIEVAL\Retrieval_8.csv,164,1,2,20,24.01,retrieval,2,2,"book_bottle.bmp",963,False,126243,201,227,"book_bottle.bmp",977,"blacksquare.bmp",2330,
3/1/2017,13:08,C:\Documents and Settings\lab\Desktop\Tadpole\2yoRETRIEVAL\Retrieval_8.csv,164,1,2,20,24.02,retrieval,57,SPACE,"blacksquare.bmp",2325,True,126243,201,227,"book_bottle.bmp",977,"blacksquare.bmp",2330,
3/1/2017,13:08,C:\Documents and Settings\lab\Desktop\Tadpole\2yoRETRIEVAL\Retrieval_8.csv,164,1,2,21,25.01,retrieval,2,2,"wheel_window.bmp",1167,False,129777,174,201,"wheel_window.bmp",1191,"whiteborder.bmp",2840,
3/1/2017,13:08,C:\Documents and Settings\lab\Desktop\Tadpole\2yoRETRIEVAL\Retrieval_8.csv,164,1,2,21,25.02,retrieval,57,SPACE,"whiteborder.bmp",2838,True,129777,174,201,"wheel_window.bmp",1191,"whiteborder.bmp",2840,
