Date,Time,File,Subj,Cond,Block,Trial,Order,task,Resp,Name,Stim,RT,Correct,Started@,LoadTime,TotalInt,Stim 1,Time 1,Stim 2,Time 2,
5/6/2017,14:07,C:\Documents and Settings\lab\Desktop\Tadpole\2yoRETRIEVAL\Retrieval_2.csv,175,1,2,1,5.01,encode,57,SPACE,"press spacebar to start retrieval task",5240,True,18987,26,53,"press spacebar to start retrieval task",5249,
5/6/2017,14:07,C:\Documents and Settings\lab\Desktop\Tadpole\2yoRETRIEVAL\Retrieval_2.csv,175,1,2,2,6.01,retrieval,2,2,"lion_bear.bmp",1337,False,24289,40,66,"lion_bear.bmp",1353,"blacksquare.bmp",4619,
5/6/2017,14:07,C:\Documents and Settings\lab\Desktop\Tadpole\2yoRETRIEVAL\Retrieval_2.csv,175,1,2,2,6.02,retrieval,57,SPACE,"blacksquare.bmp",4606,True,24289,40,66,"lion_bear.bmp",1353,"blacksquare.bmp",4619,
5/6/2017,14:07,C:\Documents and Settings\lab\Desktop\Tadpole\2yoRETRIEVAL\Retrieval_2.csv,175,1,2,3,7.01,retrieval,2,2,"lips_ear.bmp",1449,False,30327,174,200,"lips_ear.bmp",1474,"blacksquare.bmp",4592,
5/6/2017,14:07,C:\Documents and Settings\lab\Desktop\Tadpole\2yoRETRIEVAL\Retrieval_2.csv,175,1,2,3,7.02,retrieval,57,SPACE,"blacksquare.bmp",4587,True,30327,174,200,"lips_ear.bmp",1474,"blacksquare.bmp",4592,
5/6/2017,14:07,C:\Documents and Settings\lab\Desktop\Tadpole\2yoRETRIEVAL\Retrieval_2.csv,175,1,2,4,8.01,retrieval,1,1,"shirt_cap.bmp",1802,False,36593,213,241,"shirt_cap.bmp",1820,"blacksquare.bmp",4513,
5/6/2017,14:07,C:\Documents and Settings\lab\Desktop\Tadpole\2yoRETRIEVAL\Retrieval_2.csv,175,1,2,4,8.02,retrieval,57,SPACE,"blacksquare.bmp",4504,True,36593,213,241,"shirt_cap.bmp",1820,"blacksquare.bmp",4513,
5/6/2017,14:07,C:\Documents and Settings\lab\Desktop\Tadpole\2yoRETRIEVAL\Retrieval_2.csv,175,1,2,5,9.01,retrieval,1,1,"mouse_squirrel.bmp",1977,True,43167,146,174,"mouse_squirrel.bmp",1995,"blacksquare.bmp",4592,
5/6/2017,14:07,C:\Documents and Settings\lab\Desktop\Tadpole\2yoRETRIEVAL\Retrieval_2.csv,175,1,2,5,9.02,retrieval,57,SPACE,"blacksquare.bmp",4584,True,43167,146,174,"mouse_squirrel.bmp",1995,"blacksquare.bmp",4592,
5/6/2017,14:07,C:\Documents and Settings\lab\Desktop\Tadpole\2yoRETRIEVAL\Retrieval_2.csv,175,1,2,6,10.01,retrieval,1,1,"scissors_brush.bmp",1352,False,49928,173,201,"scissors_brush.bmp",1379,"blacksquare.bmp",4672,
5/6/2017,14:07,C:\Documents and Settings\lab\Desktop\Tadpole\2yoRETRIEVAL\Retrieval_2.csv,175,1,2,6,10.02,retrieval,57,SPACE,"blacksquare.bmp",4662,True,49928,173,201,"scissors_brush.bmp",1379,"blacksquare.bmp",4672,
5/6/2017,14:07,C:\Documents and Settings\lab\Desktop\Tadpole\2yoRETRIEVAL\Retrieval_2.csv,175,1,2,7,11.01,retrieval,1,1,"duck_frog.bmp",1384,False,56180,188,214,"duck_frog.bmp",1406,"blacksquare.bmp",4071,
5/6/2017,14:07,C:\Documents and Settings\lab\Desktop\Tadpole\2yoRETRIEVAL\Retrieval_2.csv,175,1,2,7,11.02,retrieval,57,SPACE,"blacksquare.bmp",4060,True,56180,188,214,"duck_frog.bmp",1406,"blacksquare.bmp",4071,
5/6/2017,14:07,C:\Documents and Settings\lab\Desktop\Tadpole\2yoRETRIEVAL\Retrieval_2.csv,175,1,2,8,12.01,retrieval,2,2,"sun_tree.bmp",1709,False,61871,160,186,"sun_tree.bmp",1728,"blacksquare.bmp",4365,
5/6/2017,14:07,C:\Documents and Settings\lab\Desktop\Tadpole\2yoRETRIEVAL\Retrieval_2.csv,175,1,2,8,12.02,retrieval,57,SPACE,"blacksquare.bmp",4357,True,61871,160,186,"sun_tree.bmp",1728,"blacksquare.bmp",4365,
5/6/2017,14:07,C:\Documents and Settings\lab\Desktop\Tadpole\2yoRETRIEVAL\Retrieval_2.csv,175,1,2,9,13.01,retrieval,1,1,"glass_bowl.bmp",3330,False,68150,174,200,"glass_bowl.bmp",3347,"blacksquare.bmp",4219,
5/6/2017,14:07,C:\Documents and Settings\lab\Desktop\Tadpole\2yoRETRIEVAL\Retrieval_2.csv,175,1,2,9,13.02,retrieval,57,SPACE,"blacksquare.bmp",4215,True,68150,174,200,"glass_bowl.bmp",3347,"blacksquare.bmp",4219,
5/6/2017,14:07,C:\Documents and Settings\lab\Desktop\Tadpole\2yoRETRIEVAL\Retrieval_2.csv,175,1,2,10,14.01,retrieval,2,2,"nail_pencil.bmp",2471,False,75916,173,200,"nail_pencil.bmp",2490,"blacksquare.bmp",4513,
5/6/2017,14:07,C:\Documents and Settings\lab\Desktop\Tadpole\2yoRETRIEVAL\Retrieval_2.csv,175,1,2,10,14.02,retrieval,57,SPACE,"blacksquare.bmp",4499,True,75916,173,200,"nail_pencil.bmp",2490,"blacksquare.bmp",4513,
5/6/2017,14:07,C:\Documents and Settings\lab\Desktop\Tadpole\2yoRETRIEVAL\Retrieval_2.csv,175,1,2,11,15.01,retrieval,1,1,"leg_arm.bmp",1732,False,83119,240,266,"leg_arm.bmp",1754,"whiteborder.bmp",4245,
5/6/2017,14:07,C:\Documents and Settings\lab\Desktop\Tadpole\2yoRETRIEVAL\Retrieval_2.csv,175,1,2,11,15.02,retrieval,57,SPACE,"whiteborder.bmp",4241,True,83119,240,266,"leg_arm.bmp",1754,"whiteborder.bmp",4245,
5/6/2017,14:07,C:\Documents and Settings\lab\Desktop\Tadpole\2yoRETRIEVAL\Retrieval_2.csv,175,1,2,12,16.01,retrieval,1,1,"flower_leaf.bmp",4464,False,89384,147,174,"flower_leaf.bmp",4485,"blacksquare.bmp",4097,
5/6/2017,14:07,C:\Documents and Settings\lab\Desktop\Tadpole\2yoRETRIEVAL\Retrieval_2.csv,175,1,2,12,16.02,retrieval,57,SPACE,"blacksquare.bmp",4090,True,89384,147,174,"flower_leaf.bmp",4485,"blacksquare.bmp",4097,
5/6/2017,14:07,C:\Documents and Settings\lab\Desktop\Tadpole\2yoRETRIEVAL\Retrieval_2.csv,175,1,2,13,17.01,retrieval,2,2,"hair_hat.bmp",4024,False,98140,147,174,"hair_hat.bmp",4043,"blacksquare.bmp",5289,
5/6/2017,14:07,C:\Documents and Settings\lab\Desktop\Tadpole\2yoRETRIEVAL\Retrieval_2.csv,175,1,2,13,17.02,retrieval,57,SPACE,"blacksquare.bmp",5278,True,98140,147,174,"hair_hat.bmp",4043,"blacksquare.bmp",5289,
5/6/2017,14:07,C:\Documents and Settings\lab\Desktop\Tadpole\2yoRETRIEVAL\Retrieval_2.csv,175,1,2,14,18.01,retrieval,1,1,"watermelon_orange.bmp",4417,False,107646,188,214,"watermelon_orange.bmp",4432,"blacksquare.bmp",4445,
5/6/2017,14:07,C:\Documents and Settings\lab\Desktop\Tadpole\2yoRETRIEVAL\Retrieval_2.csv,175,1,2,14,18.02,retrieval,57,SPACE,"blacksquare.bmp",4432,True,107646,188,214,"watermelon_orange.bmp",4432,"blacksquare.bmp",4445,
5/6/2017,14:07,C:\Documents and Settings\lab\Desktop\Tadpole\2yoRETRIEVAL\Retrieval_2.csv,175,1,2,15,19.01,retrieval,2,2,"ball_drum.bmp",5442,False,116737,188,214,"ball_drum.bmp",5463,"blacksquare.bmp",5623,
5/6/2017,14:07,C:\Documents and Settings\lab\Desktop\Tadpole\2yoRETRIEVAL\Retrieval_2.csv,175,1,2,15,19.02,retrieval,57,SPACE,"blacksquare.bmp",5621,True,116737,188,214,"ball_drum.bmp",5463,"blacksquare.bmp",5623,
5/6/2017,14:07,C:\Documents and Settings\lab\Desktop\Tadpole\2yoRETRIEVAL\Retrieval_2.csv,175,1,2,16,20.01,retrieval,1,1,"garbagecan_box.bmp",8970,False,128037,147,174,"garbagecan_box.bmp",8983,"blacksquare.bmp",4606,
5/6/2017,14:07,C:\Documents and Settings\lab\Desktop\Tadpole\2yoRETRIEVAL\Retrieval_2.csv,175,1,2,16,20.02,retrieval,57,SPACE,"blacksquare.bmp",4599,True,128037,147,174,"garbagecan_box.bmp",8983,"blacksquare.bmp",4606,
5/6/2017,14:07,C:\Documents and Settings\lab\Desktop\Tadpole\2yoRETRIEVAL\Retrieval_2.csv,175,1,2,17,21.01,retrieval,2,2,"lettuce_corn.bmp",7017,False,141800,147,174,"lettuce_corn.bmp",7042,"blacksquare.bmp",4004,
5/6/2017,14:07,C:\Documents and Settings\lab\Desktop\Tadpole\2yoRETRIEVAL\Retrieval_2.csv,175,1,2,17,21.02,retrieval,57,SPACE,"blacksquare.bmp",3992,True,141800,147,174,"lettuce_corn.bmp",7042,"blacksquare.bmp",4004,
5/6/2017,14:07,C:\Documents and Settings\lab\Desktop\Tadpole\2yoRETRIEVAL\Retrieval_2.csv,175,1,2,18,22.01,retrieval,1,1,"knife_key.bmp",4899,False,153020,160,188,"knife_key.bmp",4913,"blacksquare.bmp",3803,
5/6/2017,14:07,C:\Documents and Settings\lab\Desktop\Tadpole\2yoRETRIEVAL\Retrieval_2.csv,175,1,2,18,22.02,retrieval,57,SPACE,"blacksquare.bmp",3799,True,153020,160,188,"knife_key.bmp",4913,"blacksquare.bmp",3803,
5/6/2017,14:07,C:\Documents and Settings\lab\Desktop\Tadpole\2yoRETRIEVAL\Retrieval_2.csv,175,1,2,19,23.01,retrieval,1,1,"hand_foot.bmp",3001,False,161924,160,187,"hand_foot.bmp",3025,"blacksquare.bmp",4339,
5/6/2017,14:07,C:\Documents and Settings\lab\Desktop\Tadpole\2yoRETRIEVAL\Retrieval_2.csv,175,1,2,19,23.02,retrieval,57,SPACE,"blacksquare.bmp",4330,True,161924,160,187,"hand_foot.bmp",3025,"blacksquare.bmp",4339,
5/6/2017,14:07,C:\Documents and Settings\lab\Desktop\Tadpole\2yoRETRIEVAL\Retrieval_2.csv,175,1,2,20,24.01,retrieval,1,1,"star_cloud.bmp",3888,True,169475,133,160,"star_cloud.bmp",3910,"blacksquare.bmp",3922,
5/6/2017,14:07,C:\Documents and Settings\lab\Desktop\Tadpole\2yoRETRIEVAL\Retrieval_2.csv,175,1,2,20,24.02,retrieval,57,SPACE,"blacksquare.bmp",3922,True,169475,133,160,"star_cloud.bmp",3910,"blacksquare.bmp",3922,
5/6/2017,14:07,C:\Documents and Settings\lab\Desktop\Tadpole\2yoRETRIEVAL\Retrieval_2.csv,175,1,2,21,25.01,retrieval,1,1,"ring_watch.bmp",5729,True,177467,174,202,"ring_watch.bmp",5743,"whiteborder.bmp",3763,
5/6/2017,14:07,C:\Documents and Settings\lab\Desktop\Tadpole\2yoRETRIEVAL\Retrieval_2.csv,175,1,2,21,25.02,retrieval,57,SPACE,"whiteborder.bmp",3759,True,177467,174,202,"ring_watch.bmp",5743,"whiteborder.bmp",3763,
