Date,Time,File,Subj,Cond,Block,Trial,Order,task,Resp,Name,Stim,RT,Correct,Started@,LoadTime,TotalInt,Stim 1,Time 1,Stim 2,Time 2,Stim 3,Time 3,
9/27/2014,09:32,C:\Documents and Settings\lab\Desktop\Tadpole\2yoRETRIEVAL\Retrieval_4.csv,26,1,2,1,4.01,encode,57,SPACE,"press spacebar to start retrieval task",4451,True,28318,27,54,"press spacebar to start retrieval task",4459,
9/27/2014,09:32,C:\Documents and Settings\lab\Desktop\Tadpole\2yoRETRIEVAL\Retrieval_4.csv,26,1,1,2,5.01,encode,57,SPACE,"blacksquare.bmp",4728,True,32831,374,401,"jacquie_3_new.avi (402 x 288)",3000,"blacksquare.bmp",4739,
9/27/2014,09:32,C:\Documents and Settings\lab\Desktop\Tadpole\2yoRETRIEVAL\Retrieval_4.csv,26,1,2,2,6.01,retrieval,2,2,"lion_bear.bmp",6127,False,40971,375,401,"Jacquie_4.avi (402 x 288)",2999,"lion_bear.bmp",6146,"blacksquare.bmp",3052,
9/27/2014,09:32,C:\Documents and Settings\lab\Desktop\Tadpole\2yoRETRIEVAL\Retrieval_4.csv,26,1,2,2,6.02,retrieval,57,SPACE,"blacksquare.bmp",3051,True,40971,375,401,"Jacquie_4.avi (402 x 288)",2999,"lion_bear.bmp",6146,"blacksquare.bmp",3052,
9/27/2014,09:32,C:\Documents and Settings\lab\Desktop\Tadpole\2yoRETRIEVAL\Retrieval_4.csv,26,1,2,3,7.01,retrieval,1,1,"lips_ear.bmp",16515,True,53569,214,241,"Jacquie_4.avi (402 x 288)",3000,"lips_ear.bmp",16534,"blacksquare.bmp",1715,
9/27/2014,09:32,C:\Documents and Settings\lab\Desktop\Tadpole\2yoRETRIEVAL\Retrieval_4.csv,26,1,2,3,7.02,retrieval,57,SPACE,"blacksquare.bmp",1712,True,53569,214,241,"Jacquie_4.avi (402 x 288)",3000,"lips_ear.bmp",16534,"blacksquare.bmp",1715,
9/27/2014,09:32,C:\Documents and Settings\lab\Desktop\Tadpole\2yoRETRIEVAL\Retrieval_4.csv,26,1,2,4,8.01,retrieval,1,1,"shirt_cap.bmp",4274,False,75059,360,387,"Jacquie_4.avi (402 x 288)",2999,"shirt_cap.bmp",4298,"blacksquare.bmp",2209,
9/27/2014,09:32,C:\Documents and Settings\lab\Desktop\Tadpole\2yoRETRIEVAL\Retrieval_4.csv,26,1,2,4,8.02,retrieval,57,SPACE,"blacksquare.bmp",2200,True,75059,360,387,"Jacquie_4.avi (402 x 288)",2999,"shirt_cap.bmp",4298,"blacksquare.bmp",2209,
9/27/2014,09:32,C:\Documents and Settings\lab\Desktop\Tadpole\2yoRETRIEVAL\Retrieval_4.csv,26,1,2,5,9.01,retrieval,1,1,"mouse_squirrel.bmp",2777,True,84952,254,282,"Jacquie_4.avi (402 x 288)",2999,"mouse_squirrel.bmp",2797,"blacksquare.bmp",1942,
9/27/2014,09:32,C:\Documents and Settings\lab\Desktop\Tadpole\2yoRETRIEVAL\Retrieval_4.csv,26,1,2,5,9.02,retrieval,57,SPACE,"blacksquare.bmp",1939,True,84952,254,282,"Jacquie_4.avi (402 x 288)",2999,"mouse_squirrel.bmp",2797,"blacksquare.bmp",1942,
9/27/2014,09:32,C:\Documents and Settings\lab\Desktop\Tadpole\2yoRETRIEVAL\Retrieval_4.csv,26,1,2,6,10.01,retrieval,1,1,"scissors_brush.bmp",4382,False,92972,241,267,"Jacquie_4.avi (402 x 288)",2999,"scissors_brush.bmp",4406,"blacksquare.bmp",3775,
9/27/2014,09:32,C:\Documents and Settings\lab\Desktop\Tadpole\2yoRETRIEVAL\Retrieval_4.csv,26,1,2,6,10.02,retrieval,57,SPACE,"blacksquare.bmp",3764,True,92972,241,267,"Jacquie_4.avi (402 x 288)",2999,"scissors_brush.bmp",4406,"blacksquare.bmp",3775,
9/27/2014,09:32,C:\Documents and Settings\lab\Desktop\Tadpole\2yoRETRIEVAL\Retrieval_4.csv,26,1,2,7,11.01,retrieval,1,1,"duck_frog.bmp",2095,False,104419,241,268,"Jacquie_4.avi (402 x 288)",2999,"duck_frog.bmp",2115,"blacksquare.bmp",3816,
9/27/2014,09:32,C:\Documents and Settings\lab\Desktop\Tadpole\2yoRETRIEVAL\Retrieval_4.csv,26,1,2,7,11.02,retrieval,57,SPACE,"blacksquare.bmp",3816,True,104419,241,268,"Jacquie_4.avi (402 x 288)",2999,"duck_frog.bmp",2115,"blacksquare.bmp",3816,
9/27/2014,09:32,C:\Documents and Settings\lab\Desktop\Tadpole\2yoRETRIEVAL\Retrieval_4.csv,26,1,2,8,12.01,retrieval,1,1,"sun_tree.bmp",6811,True,113617,254,281,"Jacquie_4.avi (402 x 288)",2999,"sun_tree.bmp",6829,"blacksquare.bmp",1325,
9/27/2014,09:32,C:\Documents and Settings\lab\Desktop\Tadpole\2yoRETRIEVAL\Retrieval_4.csv,26,1,2,8,12.02,retrieval,57,SPACE,"blacksquare.bmp",1314,True,113617,254,281,"Jacquie_4.avi (402 x 288)",2999,"sun_tree.bmp",6829,"blacksquare.bmp",1325,
9/27/2014,09:32,C:\Documents and Settings\lab\Desktop\Tadpole\2yoRETRIEVAL\Retrieval_4.csv,26,1,2,9,13.01,retrieval,1,1,"glass_bowl.bmp",1391,False,125051,254,281,"Jacquie_4.avi (402 x 288)",2999,"glass_bowl.bmp",1405,"blacksquare.bmp",1568,
9/27/2014,09:32,C:\Documents and Settings\lab\Desktop\Tadpole\2yoRETRIEVAL\Retrieval_4.csv,26,1,2,9,13.02,retrieval,57,SPACE,"blacksquare.bmp",1562,True,125051,254,281,"Jacquie_4.avi (402 x 288)",2999,"glass_bowl.bmp",1405,"blacksquare.bmp",1568,
9/27/2014,09:32,C:\Documents and Settings\lab\Desktop\Tadpole\2yoRETRIEVAL\Retrieval_4.csv,26,1,2,10,14.01,retrieval,1,1,"nail_pencil.bmp",10522,True,131304,214,240,"Jacquie_4.avi (402 x 288)",2999,"nail_pencil.bmp",10537,"blacksquare.bmp",1205,
9/27/2014,09:32,C:\Documents and Settings\lab\Desktop\Tadpole\2yoRETRIEVAL\Retrieval_4.csv,26,1,2,10,14.02,retrieval,57,SPACE,"blacksquare.bmp",1199,True,131304,214,240,"Jacquie_4.avi (402 x 288)",2999,"nail_pencil.bmp",10537,"blacksquare.bmp",1205,
9/27/2014,09:32,C:\Documents and Settings\lab\Desktop\Tadpole\2yoRETRIEVAL\Retrieval_4.csv,26,1,2,11,15.01,retrieval,1,1,"leg_arm.bmp",2254,False,146285,308,334,"Jacquie_4.avi (402 x 288)",2999,"leg_arm.bmp",2277,"whiteborder.bmp",1178,
9/27/2014,09:32,C:\Documents and Settings\lab\Desktop\Tadpole\2yoRETRIEVAL\Retrieval_4.csv,26,1,2,11,15.02,retrieval,57,SPACE,"whiteborder.bmp",1171,True,146285,308,334,"Jacquie_4.avi (402 x 288)",2999,"leg_arm.bmp",2277,"whiteborder.bmp",1178,
9/27/2014,09:32,C:\Documents and Settings\lab\Desktop\Tadpole\2yoRETRIEVAL\Retrieval_4.csv,26,1,2,12,16.01,retrieval,1,1,"flower_leaf.bmp",1705,False,153073,282,308,"Jacquie_4.avi (402 x 288)",2999,"flower_leaf.bmp",1728,"blacksquare.bmp",1258,
9/27/2014,09:32,C:\Documents and Settings\lab\Desktop\Tadpole\2yoRETRIEVAL\Retrieval_4.csv,26,1,2,12,16.02,retrieval,57,SPACE,"blacksquare.bmp",1255,True,153073,282,308,"Jacquie_4.avi (402 x 288)",2999,"flower_leaf.bmp",1728,"blacksquare.bmp",1258,
9/27/2014,09:32,C:\Documents and Settings\lab\Desktop\Tadpole\2yoRETRIEVAL\Retrieval_4.csv,26,1,2,13,17.01,retrieval,1,1,"hair_hat.bmp",3619,True,159366,214,241,"Jacquie_4.avi (402 x 288)",2999,"hair_hat.bmp",3641,"blacksquare.bmp",1795,
9/27/2014,09:32,C:\Documents and Settings\lab\Desktop\Tadpole\2yoRETRIEVAL\Retrieval_4.csv,26,1,2,13,17.02,retrieval,57,SPACE,"blacksquare.bmp",1789,True,159366,214,241,"Jacquie_4.avi (402 x 288)",2999,"hair_hat.bmp",3641,"blacksquare.bmp",1795,
9/27/2014,09:32,C:\Documents and Settings\lab\Desktop\Tadpole\2yoRETRIEVAL\Retrieval_4.csv,26,1,2,14,18.01,retrieval,1,1,"watermelon_orange.bmp",9250,False,168042,1245,1272,"Jacquie_4.avi (402 x 288)",2999,"watermelon_orange.bmp",9264,"blacksquare.bmp",1059,
9/27/2014,09:32,C:\Documents and Settings\lab\Desktop\Tadpole\2yoRETRIEVAL\Retrieval_4.csv,26,1,2,14,18.02,retrieval,57,SPACE,"blacksquare.bmp",1056,True,168042,1245,1272,"Jacquie_4.avi (402 x 288)",2999,"watermelon_orange.bmp",9264,"blacksquare.bmp",1059,
9/27/2014,09:32,C:\Documents and Settings\lab\Desktop\Tadpole\2yoRETRIEVAL\Retrieval_4.csv,26,1,2,15,19.01,retrieval,1,1,"ball_drum.bmp",2047,True,182636,307,334,"Jacquie_4.avi (402 x 288)",2999,"ball_drum.bmp",2061,"blacksquare.bmp",4781,
9/27/2014,09:32,C:\Documents and Settings\lab\Desktop\Tadpole\2yoRETRIEVAL\Retrieval_4.csv,26,1,2,15,19.02,retrieval,57,SPACE,"blacksquare.bmp",4779,True,182636,307,334,"Jacquie_4.avi (402 x 288)",2999,"ball_drum.bmp",2061,"blacksquare.bmp",4781,
9/27/2014,09:32,C:\Documents and Settings\lab\Desktop\Tadpole\2yoRETRIEVAL\Retrieval_4.csv,26,1,2,16,20.01,retrieval,1,1,"garbagecan_box.bmp",3262,False,192811,240,267,"Jacquie_4.avi (402 x 288)",2999,"garbagecan_box.bmp",3281,"blacksquare.bmp",1044,
9/27/2014,09:32,C:\Documents and Settings\lab\Desktop\Tadpole\2yoRETRIEVAL\Retrieval_4.csv,26,1,2,16,20.02,retrieval,57,SPACE,"blacksquare.bmp",1037,True,192811,240,267,"Jacquie_4.avi (402 x 288)",2999,"garbagecan_box.bmp",3281,"blacksquare.bmp",1044,
9/27/2014,09:32,C:\Documents and Settings\lab\Desktop\Tadpole\2yoRETRIEVAL\Retrieval_4.csv,26,1,2,17,21.01,retrieval,1,1,"lettuce_corn.bmp",47849,True,200402,241,267,"Jacquie_4.avi (402 x 288)",2999,"lettuce_corn.bmp",47864,"blacksquare.bmp",1393,
9/27/2014,09:32,C:\Documents and Settings\lab\Desktop\Tadpole\2yoRETRIEVAL\Retrieval_4.csv,26,1,2,17,21.02,retrieval,57,SPACE,"blacksquare.bmp",1389,True,200402,241,267,"Jacquie_4.avi (402 x 288)",2999,"lettuce_corn.bmp",47864,"blacksquare.bmp",1393,
9/27/2014,09:32,C:\Documents and Settings\lab\Desktop\Tadpole\2yoRETRIEVAL\Retrieval_4.csv,26,1,2,18,22.01,retrieval,1,1,"knife_key.bmp",1768,False,252925,643,669,"Jacquie_4.avi (402 x 288)",2999,"knife_key.bmp",1795,"blacksquare.bmp",1179,
9/27/2014,09:32,C:\Documents and Settings\lab\Desktop\Tadpole\2yoRETRIEVAL\Retrieval_4.csv,26,1,2,18,22.02,retrieval,57,SPACE,"blacksquare.bmp",1175,True,252925,643,669,"Jacquie_4.avi (402 x 288)",2999,"knife_key.bmp",1795,"blacksquare.bmp",1179,
9/27/2014,09:32,C:\Documents and Settings\lab\Desktop\Tadpole\2yoRETRIEVAL\Retrieval_4.csv,26,1,2,19,23.01,retrieval,1,1,"hand_foot.bmp",182,False,259567,240,266,"Jacquie_4.avi (402 x 288)",2999,"hand_foot.bmp",201,"blacksquare.bmp",938,
9/27/2014,09:32,C:\Documents and Settings\lab\Desktop\Tadpole\2yoRETRIEVAL\Retrieval_4.csv,26,1,2,19,23.02,retrieval,57,SPACE,"blacksquare.bmp",933,True,259567,240,266,"Jacquie_4.avi (402 x 288)",2999,"hand_foot.bmp",201,"blacksquare.bmp",938,
9/27/2014,09:32,C:\Documents and Settings\lab\Desktop\Tadpole\2yoRETRIEVAL\Retrieval_4.csv,26,1,2,20,24.01,retrieval,1,1,"star_cloud.bmp",12362,True,263971,227,254,"Jacquie_4.avi (402 x 288)",2999,"star_cloud.bmp",12385,"blacksquare.bmp",1017,
9/27/2014,09:32,C:\Documents and Settings\lab\Desktop\Tadpole\2yoRETRIEVAL\Retrieval_4.csv,26,1,2,20,24.02,retrieval,57,SPACE,"blacksquare.bmp",1009,True,263971,227,254,"Jacquie_4.avi (402 x 288)",2999,"star_cloud.bmp",12385,"blacksquare.bmp",1017,
9/27/2014,09:32,C:\Documents and Settings\lab\Desktop\Tadpole\2yoRETRIEVAL\Retrieval_4.csv,26,1,2,21,25.01,retrieval,1,1,"ring_watch.bmp",732,True,280626,615,643,"Jacquie_4.avi (402 x 288)",2999,"ring_watch.bmp",750,"whiteborder.bmp",1017,
9/27/2014,09:32,C:\Documents and Settings\lab\Desktop\Tadpole\2yoRETRIEVAL\Retrieval_4.csv,26,1,2,21,25.02,retrieval,57,SPACE,"whiteborder.bmp",1010,True,280626,615,643,"Jacquie_4.avi (402 x 288)",2999,"ring_watch.bmp",750,"whiteborder.bmp",1017,
