Date,Time,File,Subj,Cond,Block,Trial,Order,task,Resp,Name,Stim,RT,Correct,Started@,LoadTime,TotalInt,Stim 1,Time 1,Stim 2,Time 2,
7/7/2014,14:00,C:\Documents and Settings\lab\Desktop\Tadpole\2yoRETRIEVAL\Tadpole_Memory_2b_Retrieval.csv,3,1,2,1,1.01,encode,57,SPACE,"press spacebar to start retrieval task",679,True,0,21,47,"press spacebar to start retrieval task",684,
7/7/2014,14:00,C:\Documents and Settings\lab\Desktop\Tadpole\2yoRETRIEVAL\Tadpole_Memory_2b_Retrieval.csv,3,1,2,2,3.01,retrieval,1,1,"nail_pencil.bmp",2043,False,4480,172,200,"nail_pencil.bmp",2061,"blacksquare.bmp",3134,
7/7/2014,14:00,C:\Documents and Settings\lab\Desktop\Tadpole\2yoRETRIEVAL\Tadpole_Memory_2b_Retrieval.csv,3,1,2,2,3.02,retrieval,57,SPACE,"blacksquare.bmp",3127,True,4480,172,200,"nail_pencil.bmp",2061,"blacksquare.bmp",3134,
7/7/2014,14:00,C:\Documents and Settings\lab\Desktop\Tadpole\2yoRETRIEVAL\Tadpole_Memory_2b_Retrieval.csv,3,1,2,3,4.01,retrieval,2,2,"stove_refrigerator.bmp",1745,False,9875,174,200,"stove_refrigerator.bmp",1768,"blacksquare.bmp",1071,
7/7/2014,14:00,C:\Documents and Settings\lab\Desktop\Tadpole\2yoRETRIEVAL\Tadpole_Memory_2b_Retrieval.csv,3,1,2,3,4.02,retrieval,57,SPACE,"blacksquare.bmp",1065,True,9875,174,200,"stove_refrigerator.bmp",1768,"blacksquare.bmp",1071,
7/7/2014,14:00,C:\Documents and Settings\lab\Desktop\Tadpole\2yoRETRIEVAL\Tadpole_Memory_2b_Retrieval.csv,3,1,2,4,5.01,retrieval,2,2,"glass_bowl.bmp",1602,False,12914,147,174,"glass_bowl.bmp",1620,"blacksquare.bmp",1741,
7/7/2014,14:00,C:\Documents and Settings\lab\Desktop\Tadpole\2yoRETRIEVAL\Tadpole_Memory_2b_Retrieval.csv,3,1,2,4,5.02,retrieval,57,SPACE,"blacksquare.bmp",1730,True,12914,147,174,"glass_bowl.bmp",1620,"blacksquare.bmp",1741,
7/7/2014,14:00,C:\Documents and Settings\lab\Desktop\Tadpole\2yoRETRIEVAL\Tadpole_Memory_2b_Retrieval.csv,3,1,2,5,6.01,retrieval,2,2,"wheel_window.bmp",1617,True,16449,147,173,"wheel_window.bmp",1634,"blacksquare.bmp",1099,
7/7/2014,14:00,C:\Documents and Settings\lab\Desktop\Tadpole\2yoRETRIEVAL\Tadpole_Memory_2b_Retrieval.csv,3,1,2,5,6.02,retrieval,57,SPACE,"blacksquare.bmp",1095,True,16449,147,173,"wheel_window.bmp",1634,"blacksquare.bmp",1099,
7/7/2014,14:00,C:\Documents and Settings\lab\Desktop\Tadpole\2yoRETRIEVAL\Tadpole_Memory_2b_Retrieval.csv,3,1,2,6,7.01,retrieval,2,2,"lips_ear.bmp",886,False,19355,186,212,"lips_ear.bmp",912,"blacksquare.bmp",2302,
7/7/2014,14:00,C:\Documents and Settings\lab\Desktop\Tadpole\2yoRETRIEVAL\Tadpole_Memory_2b_Retrieval.csv,3,1,2,6,7.02,retrieval,57,SPACE,"blacksquare.bmp",2296,True,19355,186,212,"lips_ear.bmp",912,"blacksquare.bmp",2302,
7/7/2014,14:00,C:\Documents and Settings\lab\Desktop\Tadpole\2yoRETRIEVAL\Tadpole_Memory_2b_Retrieval.csv,3,1,2,7,8.01,retrieval,2,2,"bread_potato.bmp",1826,True,22781,134,160,"bread_potato.bmp",1848,"blacksquare.bmp",1246,
7/7/2014,14:00,C:\Documents and Settings\lab\Desktop\Tadpole\2yoRETRIEVAL\Tadpole_Memory_2b_Retrieval.csv,3,1,2,7,8.02,retrieval,57,SPACE,"blacksquare.bmp",1243,True,22781,134,160,"bread_potato.bmp",1848,"blacksquare.bmp",1246,
7/7/2014,14:00,C:\Documents and Settings\lab\Desktop\Tadpole\2yoRETRIEVAL\Tadpole_Memory_2b_Retrieval.csv,3,1,2,8,9.01,retrieval,2,2,"ring_watch.bmp",1789,False,26035,120,147,"ring_watch.bmp",1807,"blacksquare.bmp",885,
7/7/2014,14:00,C:\Documents and Settings\lab\Desktop\Tadpole\2yoRETRIEVAL\Tadpole_Memory_2b_Retrieval.csv,3,1,2,8,9.02,retrieval,57,SPACE,"blacksquare.bmp",884,True,26035,120,147,"ring_watch.bmp",1807,"blacksquare.bmp",885,
7/7/2014,14:00,C:\Documents and Settings\lab\Desktop\Tadpole\2yoRETRIEVAL\Tadpole_Memory_2b_Retrieval.csv,3,1,2,9,10.01,retrieval,1,1,"eye_nose.bmp",1640,False,28874,159,187,"eye_nose.bmp",1660,"blacksquare.bmp",1218,
7/7/2014,14:00,C:\Documents and Settings\lab\Desktop\Tadpole\2yoRETRIEVAL\Tadpole_Memory_2b_Retrieval.csv,3,1,2,9,10.02,retrieval,57,SPACE,"blacksquare.bmp",1217,True,28874,159,187,"eye_nose.bmp",1660,"blacksquare.bmp",1218,
7/7/2014,14:00,C:\Documents and Settings\lab\Desktop\Tadpole\2yoRETRIEVAL\Tadpole_Memory_2b_Retrieval.csv,3,1,2,10,11.01,retrieval,2,2,"strawberry_banana.bmp",2727,True,31939,134,161,"strawberry_banana.bmp",2745,"blacksquare.bmp",1754,
7/7/2014,14:00,C:\Documents and Settings\lab\Desktop\Tadpole\2yoRETRIEVAL\Tadpole_Memory_2b_Retrieval.csv,3,1,2,10,11.02,retrieval,57,SPACE,"blacksquare.bmp",1743,True,31939,134,161,"strawberry_banana.bmp",2745,"blacksquare.bmp",1754,
7/7/2014,14:00,C:\Documents and Settings\lab\Desktop\Tadpole\2yoRETRIEVAL\Tadpole_Memory_2b_Retrieval.csv,3,1,2,11,12.01,retrieval,2,2,"airplane_helicopter.bmp",1104,False,36599,146,174,"airplane_helicopter.bmp",1125,"blacksquare.bmp",2302,
7/7/2014,14:00,C:\Documents and Settings\lab\Desktop\Tadpole\2yoRETRIEVAL\Tadpole_Memory_2b_Retrieval.csv,3,1,2,11,12.02,retrieval,57,SPACE,"blacksquare.bmp",2299,True,36599,146,174,"airplane_helicopter.bmp",1125,"blacksquare.bmp",2302,
7/7/2014,14:00,C:\Documents and Settings\lab\Desktop\Tadpole\2yoRETRIEVAL\Tadpole_Memory_2b_Retrieval.csv,3,1,2,12,14.01,retrieval,2,2,"bird_turtle.bmp",1918,True,43735,161,187,"bird_turtle.bmp",1941,"blacksquare.bmp",1407,
7/7/2014,14:00,C:\Documents and Settings\lab\Desktop\Tadpole\2yoRETRIEVAL\Tadpole_Memory_2b_Retrieval.csv,3,1,2,12,14.02,retrieval,57,SPACE,"blacksquare.bmp",1394,True,43735,161,187,"bird_turtle.bmp",1941,"blacksquare.bmp",1407,
7/7/2014,14:00,C:\Documents and Settings\lab\Desktop\Tadpole\2yoRETRIEVAL\Tadpole_Memory_2b_Retrieval.csv,3,1,2,13,15.01,retrieval,2,2,"truck_car.bmp",1750,True,47270,146,173,"truck_car.bmp",1768,"blacksquare.bmp",1433,
7/7/2014,14:00,C:\Documents and Settings\lab\Desktop\Tadpole\2yoRETRIEVAL\Tadpole_Memory_2b_Retrieval.csv,3,1,2,13,15.02,retrieval,57,SPACE,"blacksquare.bmp",1423,True,47270,146,173,"truck_car.bmp",1768,"blacksquare.bmp",1433,
7/7/2014,14:00,C:\Documents and Settings\lab\Desktop\Tadpole\2yoRETRIEVAL\Tadpole_Memory_2b_Retrieval.csv,3,1,2,14,16.01,retrieval,2,2,"sun_tree.bmp",2067,False,50644,133,160,"sun_tree.bmp",2089,"blacksquare.bmp",937,
7/7/2014,14:00,C:\Documents and Settings\lab\Desktop\Tadpole\2yoRETRIEVAL\Tadpole_Memory_2b_Retrieval.csv,3,1,2,14,16.02,retrieval,57,SPACE,"blacksquare.bmp",925,True,50644,133,160,"sun_tree.bmp",2089,"blacksquare.bmp",937,
7/7/2014,14:00,C:\Documents and Settings\lab\Desktop\Tadpole\2yoRETRIEVAL\Tadpole_Memory_2b_Retrieval.csv,3,1,2,15,17.01,retrieval,1,1,"snowman_clown.bmp",4077,True,53830,174,200,"snowman_clown.bmp",4097,"blacksquare.bmp",1729,
7/7/2014,14:00,C:\Documents and Settings\lab\Desktop\Tadpole\2yoRETRIEVAL\Tadpole_Memory_2b_Retrieval.csv,3,1,2,15,17.02,retrieval,57,SPACE,"blacksquare.bmp",1728,True,53830,174,200,"snowman_clown.bmp",4097,"blacksquare.bmp",1729,
7/7/2014,14:00,C:\Documents and Settings\lab\Desktop\Tadpole\2yoRETRIEVAL\Tadpole_Memory_2b_Retrieval.csv,3,1,2,16,18.01,retrieval,1,1,"chicken_rabbit.bmp",1765,False,59856,226,253,"chicken_rabbit.bmp",1781,"blacksquare.bmp",1486,
7/7/2014,14:00,C:\Documents and Settings\lab\Desktop\Tadpole\2yoRETRIEVAL\Tadpole_Memory_2b_Retrieval.csv,3,1,2,16,18.02,retrieval,57,SPACE,"blacksquare.bmp",1477,True,59856,226,253,"chicken_rabbit.bmp",1781,"blacksquare.bmp",1486,
7/7/2014,14:00,C:\Documents and Settings\lab\Desktop\Tadpole\2yoRETRIEVAL\Tadpole_Memory_2b_Retrieval.csv,3,1,2,17,19.01,retrieval,2,2,"watermelon_orange.bmp",1300,False,63376,134,160,"watermelon_orange.bmp",1326,"blacksquare.bmp",2116,
7/7/2014,14:00,C:\Documents and Settings\lab\Desktop\Tadpole\2yoRETRIEVAL\Tadpole_Memory_2b_Retrieval.csv,3,1,2,17,19.02,retrieval,57,SPACE,"blacksquare.bmp",2107,True,63376,134,160,"watermelon_orange.bmp",1326,"blacksquare.bmp",2116,
7/7/2014,14:00,C:\Documents and Settings\lab\Desktop\Tadpole\2yoRETRIEVAL\Tadpole_Memory_2b_Retrieval.csv,3,1,2,18,20.01,retrieval,1,1,"sailboat_bicycle.bmp",6081,False,66978,147,173,"sailboat_bicycle.bmp",6106,"blacksquare.bmp",1017,
7/7/2014,14:00,C:\Documents and Settings\lab\Desktop\Tadpole\2yoRETRIEVAL\Tadpole_Memory_2b_Retrieval.csv,3,1,2,18,20.02,retrieval,57,SPACE,"blacksquare.bmp",1012,True,66978,147,173,"sailboat_bicycle.bmp",6106,"blacksquare.bmp",1017,
7/7/2014,14:00,C:\Documents and Settings\lab\Desktop\Tadpole\2yoRETRIEVAL\Tadpole_Memory_2b_Retrieval.csv,3,1,2,19,21.01,retrieval,1,1,"table_chair.bmp",13363,True,74274,134,161,"table_chair.bmp",13388,"blacksquare.bmp",576,
7/7/2014,14:00,C:\Documents and Settings\lab\Desktop\Tadpole\2yoRETRIEVAL\Tadpole_Memory_2b_Retrieval.csv,3,1,2,19,21.02,retrieval,57,SPACE,"blacksquare.bmp",569,True,74274,134,161,"table_chair.bmp",13388,"blacksquare.bmp",576,
7/7/2014,14:00,C:\Documents and Settings\lab\Desktop\Tadpole\2yoRETRIEVAL\Tadpole_Memory_2b_Retrieval.csv,3,1,2,20,22.01,retrieval,1,1,"apple_pear.bmp",16001,True,88399,134,161,"apple_pear.bmp",16026,"blacksquare.bmp",336,
7/7/2014,14:00,C:\Documents and Settings\lab\Desktop\Tadpole\2yoRETRIEVAL\Tadpole_Memory_2b_Retrieval.csv,3,1,2,20,22.02,retrieval,57,SPACE,"blacksquare.bmp",328,True,88399,134,161,"apple_pear.bmp",16026,"blacksquare.bmp",336,
7/7/2014,14:00,C:\Documents and Settings\lab\Desktop\Tadpole\2yoRETRIEVAL\Tadpole_Memory_2b_Retrieval.csv,3,1,2,21,23.01,retrieval,1,1,"lion_bear.bmp",3123,False,104922,133,160,"lion_bear.bmp",3146,"blacksquare.bmp",577,
7/7/2014,14:00,C:\Documents and Settings\lab\Desktop\Tadpole\2yoRETRIEVAL\Tadpole_Memory_2b_Retrieval.csv,3,1,2,21,23.02,retrieval,57,SPACE,"blacksquare.bmp",568,True,104922,133,160,"lion_bear.bmp",3146,"blacksquare.bmp",577,
