Date,Time,File,Subj,Cond,Block,Trial,Order,task,Resp,Name,Stim,RT,Correct,Started@,LoadTime,TotalInt,Stim 1,Time 1,Stim 2,Time 2,
11/26/2014,10:28,C:\Documents and Settings\lab\Desktop\Tadpole\2yoRETRIEVAL\Retrieval_8.csv,49,1,2,1,4.01,encode,57,SPACE,"press spacebar to start retrieval task",3241,True,17151,27,54,"press spacebar to start retrieval task",3254,
11/26/2014,10:28,C:\Documents and Settings\lab\Desktop\Tadpole\2yoRETRIEVAL\Retrieval_8.csv,49,1,1,2,5.01,encode,57,SPACE,"blacksquare.bmp",2351,True,20459,213,240,"jacquie_3_new.avi (402 x 288)",2999,"blacksquare.bmp",2357,
11/26/2014,10:28,C:\Documents and Settings\lab\Desktop\Tadpole\2yoRETRIEVAL\Retrieval_8.csv,49,1,2,2,6.01,retrieval,2,2,"toe_finger.bmp",2854,False,26055,40,66,"toe_finger.bmp",2879,"blacksquare.bmp",4004,
11/26/2014,10:28,C:\Documents and Settings\lab\Desktop\Tadpole\2yoRETRIEVAL\Retrieval_8.csv,49,1,2,2,6.02,retrieval,57,SPACE,"blacksquare.bmp",3995,True,26055,40,66,"toe_finger.bmp",2879,"blacksquare.bmp",4004,
11/26/2014,10:28,C:\Documents and Settings\lab\Desktop\Tadpole\2yoRETRIEVAL\Retrieval_8.csv,49,1,2,3,7.01,retrieval,2,2,"snowman_clown.bmp",3165,False,33004,39,66,"snowman_clown.bmp",3187,"blacksquare.bmp",1727,
11/26/2014,10:28,C:\Documents and Settings\lab\Desktop\Tadpole\2yoRETRIEVAL\Retrieval_8.csv,49,1,2,3,7.02,retrieval,57,SPACE,"blacksquare.bmp",1724,True,33004,39,66,"snowman_clown.bmp",3187,"blacksquare.bmp",1727,
11/26/2014,10:28,C:\Documents and Settings\lab\Desktop\Tadpole\2yoRETRIEVAL\Retrieval_8.csv,49,1,2,4,8.01,retrieval,2,2,"swing_door.bmp",1796,True,37984,40,67,"swing_door.bmp",1821,"blacksquare.bmp",1353,
11/26/2014,10:28,C:\Documents and Settings\lab\Desktop\Tadpole\2yoRETRIEVAL\Retrieval_8.csv,49,1,2,4,8.02,retrieval,57,SPACE,"blacksquare.bmp",1347,True,37984,40,67,"swing_door.bmp",1821,"blacksquare.bmp",1353,
11/26/2014,10:28,C:\Documents and Settings\lab\Desktop\Tadpole\2yoRETRIEVAL\Retrieval_8.csv,49,1,2,5,9.01,retrieval,2,2,"train_bus.bmp",2272,False,41225,39,66,"train_bus.bmp",2289,"blacksquare.bmp",2478,
11/26/2014,10:28,C:\Documents and Settings\lab\Desktop\Tadpole\2yoRETRIEVAL\Retrieval_8.csv,49,1,2,5,9.02,retrieval,57,SPACE,"blacksquare.bmp",2473,True,41225,39,66,"train_bus.bmp",2289,"blacksquare.bmp",2478,
11/26/2014,10:28,C:\Documents and Settings\lab\Desktop\Tadpole\2yoRETRIEVAL\Retrieval_8.csv,49,1,2,6,10.01,retrieval,2,2,"dress_jacket.bmp",1989,True,46058,40,66,"dress_jacket.bmp",2009,"blacksquare.bmp",2061,
11/26/2014,10:28,C:\Documents and Settings\lab\Desktop\Tadpole\2yoRETRIEVAL\Retrieval_8.csv,49,1,2,6,10.02,retrieval,57,SPACE,"blacksquare.bmp",2051,True,46058,40,66,"dress_jacket.bmp",2009,"blacksquare.bmp",2061,
11/26/2014,10:28,C:\Documents and Settings\lab\Desktop\Tadpole\2yoRETRIEVAL\Retrieval_8.csv,49,1,2,7,11.01,retrieval,2,2,"fish_bee.bmp",1907,True,50194,40,67,"fish_bee.bmp",1928,"blacksquare.bmp",2879,
11/26/2014,10:28,C:\Documents and Settings\lab\Desktop\Tadpole\2yoRETRIEVAL\Retrieval_8.csv,49,1,2,7,11.02,retrieval,57,SPACE,"blacksquare.bmp",2879,True,50194,40,67,"fish_bee.bmp",1928,"blacksquare.bmp",2879,
11/26/2014,10:28,C:\Documents and Settings\lab\Desktop\Tadpole\2yoRETRIEVAL\Retrieval_8.csv,49,1,2,8,12.01,retrieval,2,2,"ostrich_fly.bmp",1881,False,55068,39,67,"ostrich_fly.bmp",1901,"blacksquare.bmp",5315,
11/26/2014,10:28,C:\Documents and Settings\lab\Desktop\Tadpole\2yoRETRIEVAL\Retrieval_8.csv,49,1,2,8,12.02,retrieval,57,SPACE,"blacksquare.bmp",5306,True,55068,39,67,"ostrich_fly.bmp",1901,"blacksquare.bmp",5315,
11/26/2014,10:28,C:\Documents and Settings\lab\Desktop\Tadpole\2yoRETRIEVAL\Retrieval_8.csv,49,1,2,9,13.01,retrieval,1,1,"stove_refrigerator.bmp",1927,False,62351,41,67,"stove_refrigerator.bmp",1941,"blacksquare.bmp",1620,
11/26/2014,10:28,C:\Documents and Settings\lab\Desktop\Tadpole\2yoRETRIEVAL\Retrieval_8.csv,49,1,2,9,13.02,retrieval,57,SPACE,"blacksquare.bmp",1611,True,62351,41,67,"stove_refrigerator.bmp",1941,"blacksquare.bmp",1620,
11/26/2014,10:28,C:\Documents and Settings\lab\Desktop\Tadpole\2yoRETRIEVAL\Retrieval_8.csv,49,1,2,10,14.01,retrieval,1,1,"truck_car.bmp",3041,True,65979,40,67,"truck_car.bmp",3066,"blacksquare.bmp",1085,
11/26/2014,10:28,C:\Documents and Settings\lab\Desktop\Tadpole\2yoRETRIEVAL\Retrieval_8.csv,49,1,2,10,14.02,retrieval,57,SPACE,"blacksquare.bmp",1085,True,65979,40,67,"truck_car.bmp",3066,"blacksquare.bmp",1085,
11/26/2014,10:28,C:\Documents and Settings\lab\Desktop\Tadpole\2yoRETRIEVAL\Retrieval_8.csv,49,1,2,11,15.01,retrieval,2,2,"table_chair.bmp",2079,True,70197,27,53,"table_chair.bmp",2102,"whiteborder.bmp",670,
11/26/2014,10:28,C:\Documents and Settings\lab\Desktop\Tadpole\2yoRETRIEVAL\Retrieval_8.csv,49,1,2,11,15.02,retrieval,57,SPACE,"whiteborder.bmp",658,True,70197,27,53,"table_chair.bmp",2102,"whiteborder.bmp",670,
11/26/2014,10:28,C:\Documents and Settings\lab\Desktop\Tadpole\2yoRETRIEVAL\Retrieval_8.csv,49,1,2,12,16.01,retrieval,2,2,"shoe_boot.bmp",1873,True,73022,39,67,"shoe_boot.bmp",1887,"blacksquare.bmp",2826,
11/26/2014,10:28,C:\Documents and Settings\lab\Desktop\Tadpole\2yoRETRIEVAL\Retrieval_8.csv,49,1,2,12,16.02,retrieval,57,SPACE,"blacksquare.bmp",2821,True,73022,39,67,"shoe_boot.bmp",1887,"blacksquare.bmp",2826,
11/26/2014,10:28,C:\Documents and Settings\lab\Desktop\Tadpole\2yoRETRIEVAL\Retrieval_8.csv,49,1,2,13,17.01,retrieval,2,2,"doorknob_bell.bmp",1766,False,77802,40,66,"doorknob_bell.bmp",1781,"blacksquare.bmp",1299,
11/26/2014,10:28,C:\Documents and Settings\lab\Desktop\Tadpole\2yoRETRIEVAL\Retrieval_8.csv,49,1,2,13,17.02,retrieval,57,SPACE,"blacksquare.bmp",1295,True,77802,40,66,"doorknob_bell.bmp",1781,"blacksquare.bmp",1299,
11/26/2014,10:28,C:\Documents and Settings\lab\Desktop\Tadpole\2yoRETRIEVAL\Retrieval_8.csv,49,1,2,14,18.01,retrieval,2,2,"sailboat_bicycle.bmp",1755,True,80948,40,67,"sailboat_bicycle.bmp",1781,"blacksquare.bmp",1526,
11/26/2014,10:28,C:\Documents and Settings\lab\Desktop\Tadpole\2yoRETRIEVAL\Retrieval_8.csv,49,1,2,14,18.02,retrieval,57,SPACE,"blacksquare.bmp",1520,True,80948,40,67,"sailboat_bicycle.bmp",1781,"blacksquare.bmp",1526,
11/26/2014,10:28,C:\Documents and Settings\lab\Desktop\Tadpole\2yoRETRIEVAL\Retrieval_8.csv,49,1,2,15,19.01,retrieval,2,2,"pig_elephant.bmp",1335,False,84322,40,67,"pig_elephant.bmp",1352,"blacksquare.bmp",4084,
11/26/2014,10:28,C:\Documents and Settings\lab\Desktop\Tadpole\2yoRETRIEVAL\Retrieval_8.csv,49,1,2,15,19.02,retrieval,57,SPACE,"blacksquare.bmp",4074,True,84322,40,67,"pig_elephant.bmp",1352,"blacksquare.bmp",4084,
11/26/2014,10:28,C:\Documents and Settings\lab\Desktop\Tadpole\2yoRETRIEVAL\Retrieval_8.csv,49,1,2,16,20.01,retrieval,2,2,"spoon_fork.bmp",1549,True,89825,39,67,"spoon_fork.bmp",1566,"blacksquare.bmp",3803,
11/26/2014,10:28,C:\Documents and Settings\lab\Desktop\Tadpole\2yoRETRIEVAL\Retrieval_8.csv,49,1,2,16,20.02,retrieval,57,SPACE,"blacksquare.bmp",3801,True,89825,39,67,"spoon_fork.bmp",1566,"blacksquare.bmp",3803,
11/26/2014,10:28,C:\Documents and Settings\lab\Desktop\Tadpole\2yoRETRIEVAL\Retrieval_8.csv,49,1,2,17,21.01,retrieval,2,2,"tiger_alligator.bmp",2690,False,95261,40,66,"tiger_alligator.bmp",2704,"blacksquare.bmp",2559,
11/26/2014,10:28,C:\Documents and Settings\lab\Desktop\Tadpole\2yoRETRIEVAL\Retrieval_8.csv,49,1,2,17,21.02,retrieval,57,SPACE,"blacksquare.bmp",2558,True,95261,40,66,"tiger_alligator.bmp",2704,"blacksquare.bmp",2559,
11/26/2014,10:28,C:\Documents and Settings\lab\Desktop\Tadpole\2yoRETRIEVAL\Retrieval_8.csv,49,1,2,18,22.01,retrieval,1,1,"sheep_monkey.bmp",1329,False,100590,39,66,"sheep_monkey.bmp",1352,"blacksquare.bmp",2317,
11/26/2014,10:28,C:\Documents and Settings\lab\Desktop\Tadpole\2yoRETRIEVAL\Retrieval_8.csv,49,1,2,18,22.02,retrieval,57,SPACE,"blacksquare.bmp",2305,True,100590,39,66,"sheep_monkey.bmp",1352,"blacksquare.bmp",2317,
11/26/2014,10:28,C:\Documents and Settings\lab\Desktop\Tadpole\2yoRETRIEVAL\Retrieval_8.csv,49,1,2,19,23.01,retrieval,2,2,"socks_pants.bmp",3700,True,104325,39,67,"socks_pants.bmp",3721,"blacksquare.bmp",951,
11/26/2014,10:28,C:\Documents and Settings\lab\Desktop\Tadpole\2yoRETRIEVAL\Retrieval_8.csv,49,1,2,19,23.02,retrieval,57,SPACE,"blacksquare.bmp",939,True,104325,39,67,"socks_pants.bmp",3721,"blacksquare.bmp",951,
11/26/2014,10:28,C:\Documents and Settings\lab\Desktop\Tadpole\2yoRETRIEVAL\Retrieval_8.csv,49,1,2,20,24.01,retrieval,2,2,"book_bottle.bmp",1474,False,109064,40,67,"book_bottle.bmp",1500,"blacksquare.bmp",1071,
11/26/2014,10:28,C:\Documents and Settings\lab\Desktop\Tadpole\2yoRETRIEVAL\Retrieval_8.csv,49,1,2,20,24.02,retrieval,57,SPACE,"blacksquare.bmp",1057,True,109064,40,67,"book_bottle.bmp",1500,"blacksquare.bmp",1071,
11/26/2014,10:28,C:\Documents and Settings\lab\Desktop\Tadpole\2yoRETRIEVAL\Retrieval_8.csv,49,1,2,21,25.01,retrieval,2,2,"wheel_window.bmp",1074,False,111702,26,53,"wheel_window.bmp",1097,"whiteborder.bmp",684,
11/26/2014,10:28,C:\Documents and Settings\lab\Desktop\Tadpole\2yoRETRIEVAL\Retrieval_8.csv,49,1,2,21,25.02,retrieval,57,SPACE,"whiteborder.bmp",673,True,111702,26,53,"wheel_window.bmp",1097,"whiteborder.bmp",684,
