Date,Time,File,Subj,Cond,Block,Trial,Order,task,Resp,Name,Stim,RT,Correct,Started@,LoadTime,TotalInt,Stim 1,Time 1,Stim 2,Time 2,
12/17/2014,14:18,C:\Documents and Settings\lab\Desktop\Tadpole\2yoRETRIEVAL\Retrieval_12.csv,53,1,2,1,5.01,encode,57,SPACE,"press spacebar to start retrieval task",994,True,33128,26,52,"press spacebar to start retrieval task",1005,
12/17/2014,14:18,C:\Documents and Settings\lab\Desktop\Tadpole\2yoRETRIEVAL\Retrieval_12.csv,53,1,2,2,6.01,retrieval,2,2,"chicken_rabbit.bmp",3195,False,34185,40,67,"chicken_rabbit.bmp",3213,"blacksquare.bmp",5007,
12/17/2014,14:18,C:\Documents and Settings\lab\Desktop\Tadpole\2yoRETRIEVAL\Retrieval_12.csv,53,1,2,2,6.02,retrieval,57,SPACE,"blacksquare.bmp",4998,True,34185,40,67,"chicken_rabbit.bmp",3213,"blacksquare.bmp",5007,
12/17/2014,14:18,C:\Documents and Settings\lab\Desktop\Tadpole\2yoRETRIEVAL\Retrieval_12.csv,53,1,2,3,7.01,retrieval,1,1,"eye_nose.bmp",15121,True,42472,40,67,"eye_nose.bmp",15142,"blacksquare.bmp",1956,
12/17/2014,14:18,C:\Documents and Settings\lab\Desktop\Tadpole\2yoRETRIEVAL\Retrieval_12.csv,53,1,2,3,7.02,retrieval,57,SPACE,"blacksquare.bmp",1947,True,42472,40,67,"eye_nose.bmp",15142,"blacksquare.bmp",1956,
12/17/2014,14:18,C:\Documents and Settings\lab\Desktop\Tadpole\2yoRETRIEVAL\Retrieval_12.csv,53,1,2,4,8.01,retrieval,2,2,"barn_house.bmp",1879,True,59637,173,201,"barn_house.bmp",1901,"blacksquare.bmp",4699,
12/17/2014,14:18,C:\Documents and Settings\lab\Desktop\Tadpole\2yoRETRIEVAL\Retrieval_12.csv,53,1,2,4,8.02,retrieval,57,SPACE,"blacksquare.bmp",4698,True,59637,173,201,"barn_house.bmp",1901,"blacksquare.bmp",4699,
12/17/2014,14:18,C:\Documents and Settings\lab\Desktop\Tadpole\2yoRETRIEVAL\Retrieval_12.csv,53,1,2,5,9.01,retrieval,2,2,"clock_telephone.bmp",3364,False,66438,148,174,"clock_telephone.bmp",3388,"blacksquare.bmp",2570,
12/17/2014,14:18,C:\Documents and Settings\lab\Desktop\Tadpole\2yoRETRIEVAL\Retrieval_12.csv,53,1,2,5,9.02,retrieval,57,SPACE,"blacksquare.bmp",2560,True,66438,148,174,"clock_telephone.bmp",3388,"blacksquare.bmp",2570,
12/17/2014,14:18,C:\Documents and Settings\lab\Desktop\Tadpole\2yoRETRIEVAL\Retrieval_12.csv,53,1,2,6,10.01,retrieval,1,1,"belt_tie.bmp",3427,False,72570,120,147,"belt_tie.bmp",3441,"blacksquare.bmp",2625,
12/17/2014,14:18,C:\Documents and Settings\lab\Desktop\Tadpole\2yoRETRIEVAL\Retrieval_12.csv,53,1,2,6,10.02,retrieval,57,SPACE,"blacksquare.bmp",2620,True,72570,120,147,"belt_tie.bmp",3441,"blacksquare.bmp",2625,
12/17/2014,14:18,C:\Documents and Settings\lab\Desktop\Tadpole\2yoRETRIEVAL\Retrieval_12.csv,53,1,2,7,11.01,retrieval,1,1,"tomato_carrot.bmp",5193,False,78783,146,174,"tomato_carrot.bmp",5208,"blacksquare.bmp",2276,
12/17/2014,14:18,C:\Documents and Settings\lab\Desktop\Tadpole\2yoRETRIEVAL\Retrieval_12.csv,53,1,2,7,11.02,retrieval,57,SPACE,"blacksquare.bmp",2271,True,78783,146,174,"tomato_carrot.bmp",5208,"blacksquare.bmp",2276,
12/17/2014,14:18,C:\Documents and Settings\lab\Desktop\Tadpole\2yoRETRIEVAL\Retrieval_12.csv,53,1,2,8,12.01,retrieval,2,2,"bird_turtle.bmp",11830,False,86441,134,160,"bird_turtle.bmp",11849,"blacksquare.bmp",1647,
12/17/2014,14:18,C:\Documents and Settings\lab\Desktop\Tadpole\2yoRETRIEVAL\Retrieval_12.csv,53,1,2,8,12.02,retrieval,57,SPACE,"blacksquare.bmp",1641,True,86441,134,160,"bird_turtle.bmp",11849,"blacksquare.bmp",1647,
12/17/2014,14:18,C:\Documents and Settings\lab\Desktop\Tadpole\2yoRETRIEVAL\Retrieval_12.csv,53,1,2,9,13.01,retrieval,2,2,"balloon_kite.bmp",1652,True,100097,174,201,"balloon_kite.bmp",1673,"blacksquare.bmp",2544,
12/17/2014,14:18,C:\Documents and Settings\lab\Desktop\Tadpole\2yoRETRIEVAL\Retrieval_12.csv,53,1,2,9,13.02,retrieval,57,SPACE,"blacksquare.bmp",2539,True,100097,174,201,"balloon_kite.bmp",1673,"blacksquare.bmp",2544,
12/17/2014,14:18,C:\Documents and Settings\lab\Desktop\Tadpole\2yoRETRIEVAL\Retrieval_12.csv,53,1,2,10,14.01,retrieval,2,2,"couch_bed.bmp",21557,False,104515,160,188,"couch_bed.bmp",21582,"blacksquare.bmp",2585,
12/17/2014,14:18,C:\Documents and Settings\lab\Desktop\Tadpole\2yoRETRIEVAL\Retrieval_12.csv,53,1,2,10,14.02,retrieval,57,SPACE,"blacksquare.bmp",2578,True,104515,160,188,"couch_bed.bmp",21582,"blacksquare.bmp",2585,
12/17/2014,14:18,C:\Documents and Settings\lab\Desktop\Tadpole\2yoRETRIEVAL\Retrieval_12.csv,53,1,2,11,15.01,retrieval,1,1,"bread_potato.bmp",3907,False,128870,575,601,"bread_potato.bmp",3923,"whiteborder.bmp",1125,
12/17/2014,14:18,C:\Documents and Settings\lab\Desktop\Tadpole\2yoRETRIEVAL\Retrieval_12.csv,53,1,2,11,15.02,retrieval,57,SPACE,"whiteborder.bmp",1119,True,128870,575,601,"bread_potato.bmp",3923,"whiteborder.bmp",1125,
12/17/2014,14:18,C:\Documents and Settings\lab\Desktop\Tadpole\2yoRETRIEVAL\Retrieval_12.csv,53,1,2,12,16.01,retrieval,1,1,"airplane_helicopter.bmp",8263,False,134519,134,160,"airplane_helicopter.bmp",8288,"blacksquare.bmp",5102,
12/17/2014,14:18,C:\Documents and Settings\lab\Desktop\Tadpole\2yoRETRIEVAL\Retrieval_12.csv,53,1,2,12,16.02,retrieval,57,SPACE,"blacksquare.bmp",5097,True,134519,134,160,"airplane_helicopter.bmp",8288,"blacksquare.bmp",5102,
12/17/2014,14:18,C:\Documents and Settings\lab\Desktop\Tadpole\2yoRETRIEVAL\Retrieval_12.csv,53,1,2,13,17.01,retrieval,2,2,"strawberry_banana.bmp",3260,False,148069,481,508,"strawberry_banana.bmp",3280,"blacksquare.bmp",2398,
12/17/2014,14:18,C:\Documents and Settings\lab\Desktop\Tadpole\2yoRETRIEVAL\Retrieval_12.csv,53,1,2,13,17.02,retrieval,57,SPACE,"blacksquare.bmp",2385,True,148069,481,508,"strawberry_banana.bmp",3280,"blacksquare.bmp",2398,
12/17/2014,14:18,C:\Documents and Settings\lab\Desktop\Tadpole\2yoRETRIEVAL\Retrieval_12.csv,53,1,2,14,18.01,retrieval,1,1,"grapes_peach.bmp",5081,False,154255,186,213,"grapes_peach.bmp",5101,"blacksquare.bmp",4580,
12/17/2014,14:18,C:\Documents and Settings\lab\Desktop\Tadpole\2yoRETRIEVAL\Retrieval_12.csv,53,1,2,14,18.02,retrieval,57,SPACE,"blacksquare.bmp",4577,True,154255,186,213,"grapes_peach.bmp",5101,"blacksquare.bmp",4580,
12/17/2014,14:18,C:\Documents and Settings\lab\Desktop\Tadpole\2yoRETRIEVAL\Retrieval_12.csv,53,1,2,15,19.01,retrieval,2,2,"lamp_television.bmp",11198,False,164149,468,494,"lamp_television.bmp",11220,"blacksquare.bmp",2665,
12/17/2014,14:18,C:\Documents and Settings\lab\Desktop\Tadpole\2yoRETRIEVAL\Retrieval_12.csv,53,1,2,15,19.02,retrieval,57,SPACE,"blacksquare.bmp",2657,True,164149,468,494,"lamp_television.bmp",11220,"blacksquare.bmp",2665,
12/17/2014,14:18,C:\Documents and Settings\lab\Desktop\Tadpole\2yoRETRIEVAL\Retrieval_12.csv,53,1,2,16,20.01,retrieval,2,2,"apple_pear.bmp",2438,True,178528,481,508,"apple_pear.bmp",2464,"blacksquare.bmp",2210,
12/17/2014,14:18,C:\Documents and Settings\lab\Desktop\Tadpole\2yoRETRIEVAL\Retrieval_12.csv,53,1,2,16,20.02,retrieval,57,SPACE,"blacksquare.bmp",2199,True,178528,481,508,"apple_pear.bmp",2464,"blacksquare.bmp",2210,
12/17/2014,14:18,C:\Documents and Settings\lab\Desktop\Tadpole\2yoRETRIEVAL\Retrieval_12.csv,53,1,2,17,21.01,retrieval,1,1,"cat_dog.bmp",8022,True,183710,146,173,"cat_dog.bmp",8046,"blacksquare.bmp",1929,
12/17/2014,14:18,C:\Documents and Settings\lab\Desktop\Tadpole\2yoRETRIEVAL\Retrieval_12.csv,53,1,2,17,21.02,retrieval,57,SPACE,"blacksquare.bmp",1923,True,183710,146,173,"cat_dog.bmp",8046,"blacksquare.bmp",1929,
12/17/2014,14:18,C:\Documents and Settings\lab\Desktop\Tadpole\2yoRETRIEVAL\Retrieval_12.csv,53,1,2,18,22.01,retrieval,1,1,"ladder_dresser.bmp",5988,False,193858,495,522,"ladder_dresser.bmp",6011,"blacksquare.bmp",2223,
12/17/2014,14:18,C:\Documents and Settings\lab\Desktop\Tadpole\2yoRETRIEVAL\Retrieval_12.csv,53,1,2,18,22.02,retrieval,57,SPACE,"blacksquare.bmp",2222,True,193858,495,522,"ladder_dresser.bmp",6011,"blacksquare.bmp",2223,
12/17/2014,14:18,C:\Documents and Settings\lab\Desktop\Tadpole\2yoRETRIEVAL\Retrieval_12.csv,53,1,2,19,23.01,retrieval,2,2,"mitten_glasses.bmp",1882,True,202614,187,214,"mitten_glasses.bmp",1901,"blacksquare.bmp",3200,
12/17/2014,14:18,C:\Documents and Settings\lab\Desktop\Tadpole\2yoRETRIEVAL\Retrieval_12.csv,53,1,2,19,23.02,retrieval,57,SPACE,"blacksquare.bmp",3198,True,202614,187,214,"mitten_glasses.bmp",1901,"blacksquare.bmp",3200,
12/17/2014,14:18,C:\Documents and Settings\lab\Desktop\Tadpole\2yoRETRIEVAL\Retrieval_12.csv,53,1,2,20,24.01,retrieval,2,2,"butterfly_ant.bmp",6159,False,207929,134,161,"butterfly_ant.bmp",6171,"blacksquare.bmp",2330,
12/17/2014,14:18,C:\Documents and Settings\lab\Desktop\Tadpole\2yoRETRIEVAL\Retrieval_12.csv,53,1,2,20,24.02,retrieval,57,SPACE,"blacksquare.bmp",2324,True,207929,134,161,"butterfly_ant.bmp",6171,"blacksquare.bmp",2330,
12/17/2014,14:18,C:\Documents and Settings\lab\Desktop\Tadpole\2yoRETRIEVAL\Retrieval_12.csv,53,1,2,21,25.01,retrieval,2,2,"cow_horse.bmp",4092,False,216591,134,161,"cow_horse.bmp",4110,"whiteborder.bmp",911,
12/17/2014,14:18,C:\Documents and Settings\lab\Desktop\Tadpole\2yoRETRIEVAL\Retrieval_12.csv,53,1,2,21,25.02,retrieval,57,SPACE,"whiteborder.bmp",902,True,216591,134,161,"cow_horse.bmp",4110,"whiteborder.bmp",911,
