Date,Time,File,Subj,Cond,Block,Trial,Order,task,Resp,Name,Stim,RT,Correct,Started@,LoadTime,TotalInt,Stim 1,Time 1,Stim 2,Time 2,
1/27/2016,11:14,C:\Documents and Settings\lab\Desktop\Tadpole\Stroop Task\stroop 1.csv,109,1,1,1,1.01,encode,57,SPACE,"press spacebar to start practice",978,True,0,193,210,"press spacebar to start practice",1034,
1/27/2016,11:14,C:\Documents and Settings\lab\Desktop\Tadpole\Stroop Task\stroop 1.csv,109,1,1,2,2.01,encode,57,SPACE,"YELLOW",1402,True,1244,483,499,"YELLOW",1417,"blacksquare.bmp",501,
1/27/2016,11:14,C:\Documents and Settings\lab\Desktop\Tadpole\Stroop Task\stroop 1.csv,109,1,1,3,3.01,encode,57,SPACE,"BLUE",1096,True,3661,32,49,"BLUE",1117,"blacksquare.bmp",501,
1/27/2016,11:14,C:\Documents and Settings\lab\Desktop\Tadpole\Stroop Task\stroop 1.csv,109,1,1,4,4.01,encode,57,SPACE,"RED",1354,True,5328,32,49,"RED",1383,"blacksquare.bmp",502,
1/27/2016,11:14,C:\Documents and Settings\lab\Desktop\Tadpole\Stroop Task\stroop 1.csv,109,1,1,5,5.01,encode,57,SPACE,"GREEN",1145,True,7262,31,49,"GREEN",1166,"blacksquare.bmp",501,
1/27/2016,11:14,C:\Documents and Settings\lab\Desktop\Tadpole\Stroop Task\stroop 1.csv,109,1,1,6,6.01,encode,57,SPACE,"RED",1259,True,8978,32,48,"RED",1285,"blacksquare.bmp",501,
1/27/2016,11:14,C:\Documents and Settings\lab\Desktop\Tadpole\Stroop Task\stroop 1.csv,109,1,1,7,7.01,encode,57,SPACE,"BLUE",1550,True,10812,32,48,"BLUE",1567,"blacksquare.bmp",501,
1/27/2016,11:14,C:\Documents and Settings\lab\Desktop\Tadpole\Stroop Task\stroop 1.csv,109,1,1,8,8.01,encode,57,SPACE,"GREEN",1206,True,12928,32,49,"GREEN",1233,"blacksquare.bmp",502,
1/27/2016,11:14,C:\Documents and Settings\lab\Desktop\Tadpole\Stroop Task\stroop 1.csv,109,1,1,9,9.01,encode,57,SPACE,"BLUE",1244,True,14712,31,48,"BLUE",1267,"blacksquare.bmp",501,
1/27/2016,11:14,C:\Documents and Settings\lab\Desktop\Tadpole\Stroop Task\stroop 1.csv,109,1,1,10,10.01,encode,57,SPACE,"GREEN",1495,True,16528,33,49,"GREEN",1517,"blacksquare.bmp",501,
1/27/2016,11:14,C:\Documents and Settings\lab\Desktop\Tadpole\Stroop Task\stroop 1.csv,109,1,1,11,11.01,encode,57,SPACE,"YELLOW",1946,True,18595,32,49,"YELLOW",1966,"blacksquare.bmp",501,
1/27/2016,11:14,C:\Documents and Settings\lab\Desktop\Tadpole\Stroop Task\stroop 1.csv,109,1,1,12,12.01,encode,57,SPACE,"END",8511,True,21111,33,49,"END",8533,"blacksquare.bmp",502,
1/27/2016,11:14,C:\Documents and Settings\lab\Desktop\Tadpole\Stroop Task\stroop 1.csv,109,1,1,13,13.01,encode,57,SPACE,"press spacebar to start task",520,True,30195,33,49,"press spacebar to start task",534,
1/27/2016,11:14,C:\Documents and Settings\lab\Desktop\Tadpole\Stroop Task\stroop 1.csv,109,1,1,14,14.01,encode,57,SPACE,"YELLOW",1502,True,30778,33,49,"YELLOW",1533,"blacksquare.bmp",501,
1/27/2016,11:14,C:\Documents and Settings\lab\Desktop\Tadpole\Stroop Task\stroop 1.csv,109,1,1,15,15.01,encode,57,SPACE,"RED",1321,True,32861,33,49,"RED",1351,"blacksquare.bmp",501,
1/27/2016,11:14,C:\Documents and Settings\lab\Desktop\Tadpole\Stroop Task\stroop 1.csv,109,1,1,16,16.01,encode,57,SPACE,"GREEN",1176,True,34762,32,49,"GREEN",1200,"blacksquare.bmp",501,
1/27/2016,11:14,C:\Documents and Settings\lab\Desktop\Tadpole\Stroop Task\stroop 1.csv,109,1,1,17,17.01,encode,57,SPACE,"RED",1000,True,36512,32,49,"RED",1016,"blacksquare.bmp",501,
1/27/2016,11:14,C:\Documents and Settings\lab\Desktop\Tadpole\Stroop Task\stroop 1.csv,109,1,1,18,18.01,encode,57,SPACE,"YELLOW",1023,True,38078,32,49,"YELLOW",1051,"blacksquare.bmp",501,
1/27/2016,11:14,C:\Documents and Settings\lab\Desktop\Tadpole\Stroop Task\stroop 1.csv,109,1,1,19,19.01,encode,57,SPACE,"BLUE",971,True,39679,32,49,"BLUE",1000,"blacksquare.bmp",501,
1/27/2016,11:14,C:\Documents and Settings\lab\Desktop\Tadpole\Stroop Task\stroop 1.csv,109,1,1,20,20.01,encode,57,SPACE,"YELLOW",1011,True,41229,32,48,"YELLOW",1034,"blacksquare.bmp",501,
1/27/2016,11:14,C:\Documents and Settings\lab\Desktop\Tadpole\Stroop Task\stroop 1.csv,109,1,1,21,21.01,encode,57,SPACE,"RED",1513,True,42812,32,48,"RED",1534,"blacksquare.bmp",502,
1/27/2016,11:14,C:\Documents and Settings\lab\Desktop\Tadpole\Stroop Task\stroop 1.csv,109,1,1,22,22.01,encode,57,SPACE,"YELLOW",970,True,44896,32,48,"YELLOW",1000,"blacksquare.bmp",501,
1/27/2016,11:14,C:\Documents and Settings\lab\Desktop\Tadpole\Stroop Task\stroop 1.csv,109,1,1,23,23.01,encode,57,SPACE,"GREEN",1146,True,46445,33,49,"GREEN",1167,"blacksquare.bmp",501,
1/27/2016,11:14,C:\Documents and Settings\lab\Desktop\Tadpole\Stroop Task\stroop 1.csv,109,1,1,24,24.01,encode,57,SPACE,"GREEN",1033,True,48162,32,49,"GREEN",1050,"blacksquare.bmp",501,
1/27/2016,11:14,C:\Documents and Settings\lab\Desktop\Tadpole\Stroop Task\stroop 1.csv,109,1,1,25,25.01,encode,57,SPACE,"YELLOW",1335,True,49762,32,49,"YELLOW",1367,"blacksquare.bmp",501,
1/27/2016,11:14,C:\Documents and Settings\lab\Desktop\Tadpole\Stroop Task\stroop 1.csv,109,1,1,26,26.01,encode,57,SPACE,"GREEN",1111,True,51679,32,49,"GREEN",1133,"blacksquare.bmp",501,
1/27/2016,11:14,C:\Documents and Settings\lab\Desktop\Tadpole\Stroop Task\stroop 1.csv,109,1,1,27,27.01,encode,57,SPACE,"GREEN",1105,True,53362,33,49,"GREEN",1133,"blacksquare.bmp",502,
1/27/2016,11:14,C:\Documents and Settings\lab\Desktop\Tadpole\Stroop Task\stroop 1.csv,109,1,1,28,28.01,encode,57,SPACE,"RED",1083,True,55046,31,48,"RED",1100,"blacksquare.bmp",501,
1/27/2016,11:14,C:\Documents and Settings\lab\Desktop\Tadpole\Stroop Task\stroop 1.csv,109,1,1,29,29.01,encode,57,SPACE,"BLUE",1238,True,56695,33,49,"BLUE",1267,"blacksquare.bmp",501,
1/27/2016,11:14,C:\Documents and Settings\lab\Desktop\Tadpole\Stroop Task\stroop 1.csv,109,1,1,30,30.01,encode,57,SPACE,"YELLOW",1122,True,58512,32,49,"YELLOW",1150,"blacksquare.bmp",501,
1/27/2016,11:14,C:\Documents and Settings\lab\Desktop\Tadpole\Stroop Task\stroop 1.csv,109,1,1,31,31.01,encode,57,SPACE,"RED",1163,True,60212,32,49,"RED",1183,"blacksquare.bmp",501,
1/27/2016,11:14,C:\Documents and Settings\lab\Desktop\Tadpole\Stroop Task\stroop 1.csv,109,1,1,32,32.01,encode,57,SPACE,"GREEN",1148,True,61945,33,49,"GREEN",1167,"blacksquare.bmp",501,
1/27/2016,11:14,C:\Documents and Settings\lab\Desktop\Tadpole\Stroop Task\stroop 1.csv,109,1,1,33,33.01,encode,57,SPACE,"GREEN",1491,True,63662,32,49,"GREEN",1517,"blacksquare.bmp",501,
1/27/2016,11:14,C:\Documents and Settings\lab\Desktop\Tadpole\Stroop Task\stroop 1.csv,109,1,1,34,34.01,encode,57,SPACE,"YELLOW",1086,True,65729,32,48,"YELLOW",1118,"blacksquare.bmp",501,
1/27/2016,11:14,C:\Documents and Settings\lab\Desktop\Tadpole\Stroop Task\stroop 1.csv,109,1,1,35,35.01,encode,57,SPACE,"YELLOW",928,True,67396,32,48,"YELLOW",951,"blacksquare.bmp",501,
1/27/2016,11:14,C:\Documents and Settings\lab\Desktop\Tadpole\Stroop Task\stroop 1.csv,109,1,1,36,36.01,encode,57,SPACE,"RED",898,True,68896,32,48,"RED",917,"blacksquare.bmp",501,
1/27/2016,11:14,C:\Documents and Settings\lab\Desktop\Tadpole\Stroop Task\stroop 1.csv,109,1,1,37,37.01,encode,57,SPACE,"GREEN",987,True,70362,33,49,"GREEN",1017,"blacksquare.bmp",501,
1/27/2016,11:14,C:\Documents and Settings\lab\Desktop\Tadpole\Stroop Task\stroop 1.csv,109,1,1,38,38.01,encode,57,SPACE,"RED",970,True,71929,32,49,"RED",1000,"blacksquare.bmp",502,
1/27/2016,11:14,C:\Documents and Settings\lab\Desktop\Tadpole\Stroop Task\stroop 1.csv,109,1,1,39,39.01,encode,57,SPACE,"GREEN",1001,True,73480,31,48,"GREEN",1034,"blacksquare.bmp",501,
1/27/2016,11:14,C:\Documents and Settings\lab\Desktop\Tadpole\Stroop Task\stroop 1.csv,109,1,1,40,40.01,encode,57,SPACE,"YELLOW",879,True,75063,32,48,"YELLOW",900,"blacksquare.bmp",502,
1/27/2016,11:14,C:\Documents and Settings\lab\Desktop\Tadpole\Stroop Task\stroop 1.csv,109,1,1,41,41.01,encode,57,SPACE,"GREEN",841,True,76513,32,49,"GREEN",866,"blacksquare.bmp",501,
1/27/2016,11:14,C:\Documents and Settings\lab\Desktop\Tadpole\Stroop Task\stroop 1.csv,109,1,1,42,42.01,encode,57,SPACE,"BLUE",2590,True,77929,32,49,"BLUE",2617,"blacksquare.bmp",501,
1/27/2016,11:14,C:\Documents and Settings\lab\Desktop\Tadpole\Stroop Task\stroop 1.csv,109,1,1,43,43.01,encode,57,SPACE,"YELLOW",964,True,81096,32,49,"YELLOW",983,"blacksquare.bmp",501,
1/27/2016,11:14,C:\Documents and Settings\lab\Desktop\Tadpole\Stroop Task\stroop 1.csv,109,1,1,44,44.01,encode,57,SPACE,"YELLOW",916,True,82629,32,49,"YELLOW",933,"blacksquare.bmp",501,
1/27/2016,11:14,C:\Documents and Settings\lab\Desktop\Tadpole\Stroop Task\stroop 1.csv,109,1,1,45,45.01,encode,57,SPACE,"RED",927,True,84112,33,49,"RED",950,"blacksquare.bmp",501,
1/27/2016,11:14,C:\Documents and Settings\lab\Desktop\Tadpole\Stroop Task\stroop 1.csv,109,1,1,46,46.01,encode,57,SPACE,"GREEN",968,True,85612,33,49,"GREEN",984,"blacksquare.bmp",501,
1/27/2016,11:14,C:\Documents and Settings\lab\Desktop\Tadpole\Stroop Task\stroop 1.csv,109,1,1,47,47.01,encode,57,SPACE,"YELLOW",984,True,87146,32,48,"YELLOW",1000,"blacksquare.bmp",502,
1/27/2016,11:14,C:\Documents and Settings\lab\Desktop\Tadpole\Stroop Task\stroop 1.csv,109,1,1,48,48.01,encode,57,SPACE,"YELLOW",1029,True,88696,33,49,"YELLOW",1050,"blacksquare.bmp",501,
1/27/2016,11:14,C:\Documents and Settings\lab\Desktop\Tadpole\Stroop Task\stroop 1.csv,109,1,1,49,49.01,encode,57,SPACE,"RED",955,True,90296,32,49,"RED",983,"blacksquare.bmp",501,
1/27/2016,11:14,C:\Documents and Settings\lab\Desktop\Tadpole\Stroop Task\stroop 1.csv,109,1,1,50,50.01,encode,57,SPACE,"BLUE",955,True,91829,32,49,"BLUE",983,"blacksquare.bmp",501,
1/27/2016,11:14,C:\Documents and Settings\lab\Desktop\Tadpole\Stroop Task\stroop 1.csv,109,1,1,51,51.01,encode,57,SPACE,"BLUE",1356,True,93362,33,49,"BLUE",1384,"blacksquare.bmp",501,
1/27/2016,11:14,C:\Documents and Settings\lab\Desktop\Tadpole\Stroop Task\stroop 1.csv,109,1,1,52,52.01,encode,57,SPACE,"YELLOW",1379,True,95296,32,49,"YELLOW",1400,"blacksquare.bmp",501,
1/27/2016,11:14,C:\Documents and Settings\lab\Desktop\Tadpole\Stroop Task\stroop 1.csv,109,1,1,53,53.01,encode,57,SPACE,"BLUE",1825,True,97246,32,49,"BLUE",1850,"blacksquare.bmp",502,
1/27/2016,11:14,C:\Documents and Settings\lab\Desktop\Tadpole\Stroop Task\stroop 1.csv,109,1,1,54,54.01,encode,57,SPACE,"BLUE",1038,True,99647,32,48,"BLUE",1067,"blacksquare.bmp",501,
1/27/2016,11:14,C:\Documents and Settings\lab\Desktop\Tadpole\Stroop Task\stroop 1.csv,109,1,1,55,55.01,encode,57,SPACE,"RED",1594,True,101263,32,49,"RED",1617,"blacksquare.bmp",501,
1/27/2016,11:14,C:\Documents and Settings\lab\Desktop\Tadpole\Stroop Task\stroop 1.csv,109,1,1,56,56.01,encode,57,SPACE,"BLUE",1512,True,103430,32,49,"BLUE",1533,"blacksquare.bmp",501,
1/27/2016,11:14,C:\Documents and Settings\lab\Desktop\Tadpole\Stroop Task\stroop 1.csv,109,1,1,57,57.01,encode,57,SPACE,"RED",1146,True,105513,32,49,"RED",1167,"blacksquare.bmp",501,
1/27/2016,11:14,C:\Documents and Settings\lab\Desktop\Tadpole\Stroop Task\stroop 1.csv,109,1,1,58,58.01,encode,57,SPACE,"BLUE",1227,True,107230,32,48,"BLUE",1250,"blacksquare.bmp",501,
1/27/2016,11:14,C:\Documents and Settings\lab\Desktop\Tadpole\Stroop Task\stroop 1.csv,109,1,1,59,59.01,encode,57,SPACE,"YELLOW",1800,True,109029,33,49,"YELLOW",1818,"blacksquare.bmp",501,
1/27/2016,11:14,C:\Documents and Settings\lab\Desktop\Tadpole\Stroop Task\stroop 1.csv,109,1,1,60,60.01,encode,57,SPACE,"BLUE",942,True,111397,32,48,"BLUE",967,"blacksquare.bmp",501,
1/27/2016,11:14,C:\Documents and Settings\lab\Desktop\Tadpole\Stroop Task\stroop 1.csv,109,1,1,61,61.01,encode,57,SPACE,"RED",1438,True,112913,32,49,"RED",1467,"blacksquare.bmp",501,
1/27/2016,11:14,C:\Documents and Settings\lab\Desktop\Tadpole\Stroop Task\stroop 1.csv,109,1,1,62,62.01,encode,57,SPACE,"GREEN",1210,True,114930,32,49,"GREEN",1233,"blacksquare.bmp",501,
1/27/2016,11:14,C:\Documents and Settings\lab\Desktop\Tadpole\Stroop Task\stroop 1.csv,109,1,1,63,63.01,encode,57,SPACE,"RED",1544,True,116713,32,49,"RED",1566,"blacksquare.bmp",502,
1/27/2016,11:14,C:\Documents and Settings\lab\Desktop\Tadpole\Stroop Task\stroop 1.csv,109,1,1,64,64.01,encode,57,SPACE,"YELLOW",928,True,118830,32,49,"YELLOW",949,"blacksquare.bmp",502,
1/27/2016,11:14,C:\Documents and Settings\lab\Desktop\Tadpole\Stroop Task\stroop 1.csv,109,1,1,65,65.01,encode,57,SPACE,"BLUE",945,True,120330,32,49,"BLUE",967,"blacksquare.bmp",501,
1/27/2016,11:14,C:\Documents and Settings\lab\Desktop\Tadpole\Stroop Task\stroop 1.csv,109,1,1,66,66.01,encode,57,SPACE,"GREEN",1241,True,121847,32,49,"GREEN",1266,"blacksquare.bmp",501,
1/27/2016,11:14,C:\Documents and Settings\lab\Desktop\Tadpole\Stroop Task\stroop 1.csv,109,1,1,67,67.01,encode,57,SPACE,"GREEN",1150,True,123663,32,49,"GREEN",1167,"blacksquare.bmp",501,
1/27/2016,11:14,C:\Documents and Settings\lab\Desktop\Tadpole\Stroop Task\stroop 1.csv,109,1,1,68,68.01,encode,57,SPACE,"YELLOW",1366,True,125380,32,49,"YELLOW",1384,"blacksquare.bmp",501,
1/27/2016,11:14,C:\Documents and Settings\lab\Desktop\Tadpole\Stroop Task\stroop 1.csv,109,1,1,69,69.01,encode,57,SPACE,"RED",966,True,127314,32,48,"RED",984,"blacksquare.bmp",501,
1/27/2016,11:14,C:\Documents and Settings\lab\Desktop\Tadpole\Stroop Task\stroop 1.csv,109,1,1,70,70.01,encode,57,SPACE,"YELLOW",1269,True,128847,32,49,"YELLOW",1299,"blacksquare.bmp",501,
1/27/2016,11:14,C:\Documents and Settings\lab\Desktop\Tadpole\Stroop Task\stroop 1.csv,109,1,1,71,71.01,encode,57,SPACE,"GREEN",850,True,130696,33,49,"GREEN",867,"blacksquare.bmp",501,
1/27/2016,11:14,C:\Documents and Settings\lab\Desktop\Tadpole\Stroop Task\stroop 1.csv,109,1,1,72,72.01,encode,57,SPACE,"RED",1077,True,132113,33,49,"RED",1100,"blacksquare.bmp",502,
1/27/2016,11:14,C:\Documents and Settings\lab\Desktop\Tadpole\Stroop Task\stroop 1.csv,109,1,1,73,73.01,encode,57,SPACE,"GREEN",1440,True,133764,32,49,"GREEN",1466,"blacksquare.bmp",501,
1/27/2016,11:14,C:\Documents and Settings\lab\Desktop\Tadpole\Stroop Task\stroop 1.csv,109,1,1,74,74.01,encode,57,SPACE,"YELLOW",956,True,135780,33,49,"YELLOW",984,"blacksquare.bmp",501,
1/27/2016,11:14,C:\Documents and Settings\lab\Desktop\Tadpole\Stroop Task\stroop 1.csv,109,1,1,75,75.01,encode,57,SPACE,"RED",933,True,137314,32,48,"RED",951,"blacksquare.bmp",501,
1/27/2016,11:14,C:\Documents and Settings\lab\Desktop\Tadpole\Stroop Task\stroop 1.csv,109,1,1,76,76.01,encode,57,SPACE,"RED",1006,True,138814,32,48,"RED",1034,"blacksquare.bmp",501,
1/27/2016,11:14,C:\Documents and Settings\lab\Desktop\Tadpole\Stroop Task\stroop 1.csv,109,1,1,77,77.01,encode,57,SPACE,"RED",844,True,140397,32,48,"RED",868,"blacksquare.bmp",501,
1/27/2016,11:14,C:\Documents and Settings\lab\Desktop\Tadpole\Stroop Task\stroop 1.csv,109,1,1,78,78.01,encode,57,SPACE,"BLUE",984,True,141814,32,48,"BLUE",1000,"blacksquare.bmp",501,
1/27/2016,11:14,C:\Documents and Settings\lab\Desktop\Tadpole\Stroop Task\stroop 1.csv,109,1,1,79,79.01,encode,57,SPACE,"BLUE",896,True,143363,33,49,"BLUE",917,"blacksquare.bmp",501,
1/27/2016,11:14,C:\Documents and Settings\lab\Desktop\Tadpole\Stroop Task\stroop 1.csv,109,1,1,80,80.01,encode,57,SPACE,"BLUE",953,True,144830,32,49,"BLUE",983,"blacksquare.bmp",501,
1/27/2016,11:14,C:\Documents and Settings\lab\Desktop\Tadpole\Stroop Task\stroop 1.csv,109,1,1,81,81.01,encode,57,SPACE,"RED",1050,True,146363,33,49,"RED",1068,"blacksquare.bmp",501,
1/27/2016,11:14,C:\Documents and Settings\lab\Desktop\Tadpole\Stroop Task\stroop 1.csv,109,1,1,82,82.01,encode,57,SPACE,"BLUE",1037,True,147981,32,48,"BLUE",1067,"blacksquare.bmp",501,
1/27/2016,11:14,C:\Documents and Settings\lab\Desktop\Tadpole\Stroop Task\stroop 1.csv,109,1,1,83,83.01,encode,57,SPACE,"RED",1010,True,149597,32,49,"RED",1033,"blacksquare.bmp",502,
1/27/2016,11:14,C:\Documents and Settings\lab\Desktop\Tadpole\Stroop Task\stroop 1.csv,109,1,1,84,84.01,encode,57,SPACE,"RED",1495,True,151181,32,49,"RED",1516,"blacksquare.bmp",501,
1/27/2016,11:14,C:\Documents and Settings\lab\Desktop\Tadpole\Stroop Task\stroop 1.csv,109,1,1,85,85.01,encode,57,SPACE,"RED",1122,True,153247,32,49,"RED",1149,"blacksquare.bmp",502,
1/27/2016,11:14,C:\Documents and Settings\lab\Desktop\Tadpole\Stroop Task\stroop 1.csv,109,1,1,86,86.01,encode,57,SPACE,"BLUE",1610,True,154947,33,49,"BLUE",1633,"blacksquare.bmp",502,
1/27/2016,11:14,C:\Documents and Settings\lab\Desktop\Tadpole\Stroop Task\stroop 1.csv,109,1,1,87,87.01,encode,57,SPACE,"GREEN",801,True,157131,31,48,"GREEN",817,"blacksquare.bmp",501,
1/27/2016,11:14,C:\Documents and Settings\lab\Desktop\Tadpole\Stroop Task\stroop 1.csv,109,1,1,88,88.01,encode,57,SPACE,"RED",1062,True,158497,32,49,"RED",1083,"blacksquare.bmp",502,
1/27/2016,11:14,C:\Documents and Settings\lab\Desktop\Tadpole\Stroop Task\stroop 1.csv,109,1,1,89,89.01,encode,57,SPACE,"BLUE",1051,True,160131,31,49,"BLUE",1066,"blacksquare.bmp",501,
1/27/2016,11:14,C:\Documents and Settings\lab\Desktop\Tadpole\Stroop Task\stroop 1.csv,109,1,1,90,90.01,encode,57,SPACE,"YELLOW",928,True,161747,32,49,"YELLOW",950,"blacksquare.bmp",501,
1/27/2016,11:14,C:\Documents and Settings\lab\Desktop\Tadpole\Stroop Task\stroop 1.csv,109,1,1,91,91.01,encode,57,SPACE,"RED",1024,True,163247,32,49,"RED",1050,"blacksquare.bmp",502,
1/27/2016,11:14,C:\Documents and Settings\lab\Desktop\Tadpole\Stroop Task\stroop 1.csv,109,1,1,92,92.01,encode,57,SPACE,"YELLOW",942,True,164848,31,48,"YELLOW",966,"blacksquare.bmp",502,
1/27/2016,11:14,C:\Documents and Settings\lab\Desktop\Tadpole\Stroop Task\stroop 1.csv,109,1,1,93,93.01,encode,57,SPACE,"GREEN",1134,True,166364,32,49,"GREEN",1150,"blacksquare.bmp",501,
1/27/2016,11:14,C:\Documents and Settings\lab\Desktop\Tadpole\Stroop Task\stroop 1.csv,109,1,1,94,94.01,encode,57,SPACE,"RED",1240,True,168064,32,48,"RED",1267,"blacksquare.bmp",502,
1/27/2016,11:14,C:\Documents and Settings\lab\Desktop\Tadpole\Stroop Task\stroop 1.csv,109,1,1,95,95.01,encode,57,SPACE,"YELLOW",1195,True,169881,32,49,"YELLOW",1217,"blacksquare.bmp",501,
1/27/2016,11:14,C:\Documents and Settings\lab\Desktop\Tadpole\Stroop Task\stroop 1.csv,109,1,1,96,96.01,encode,57,SPACE,"BLUE",1289,True,171648,32,48,"BLUE",1317,"blacksquare.bmp",501,
1/27/2016,11:14,C:\Documents and Settings\lab\Desktop\Tadpole\Stroop Task\stroop 1.csv,109,1,1,97,97.01,encode,57,SPACE,"GREEN",1564,True,173514,32,49,"GREEN",1584,"blacksquare.bmp",501,
1/27/2016,11:14,C:\Documents and Settings\lab\Desktop\Tadpole\Stroop Task\stroop 1.csv,109,1,1,98,98.01,encode,57,SPACE,"YELLOW",1291,True,175648,32,48,"YELLOW",1317,"blacksquare.bmp",501,
1/27/2016,11:14,C:\Documents and Settings\lab\Desktop\Tadpole\Stroop Task\stroop 1.csv,109,1,1,99,99.01,encode,57,SPACE,"GREEN",1213,True,177514,32,49,"GREEN",1233,"blacksquare.bmp",502,
1/27/2016,11:14,C:\Documents and Settings\lab\Desktop\Tadpole\Stroop Task\stroop 1.csv,109,1,1,100,100.01,encode,57,SPACE,"BLUE",868,True,179298,31,48,"BLUE",884,"blacksquare.bmp",501,
1/27/2016,11:14,C:\Documents and Settings\lab\Desktop\Tadpole\Stroop Task\stroop 1.csv,109,1,1,101,101.01,encode,57,SPACE,"RED",1119,True,180731,32,48,"RED",1151,"blacksquare.bmp",501,
1/27/2016,11:14,C:\Documents and Settings\lab\Desktop\Tadpole\Stroop Task\stroop 1.csv,109,1,1,102,102.01,encode,57,SPACE,"GREEN",1032,True,182431,32,49,"GREEN",1049,"blacksquare.bmp",502,
1/27/2016,11:14,C:\Documents and Settings\lab\Desktop\Tadpole\Stroop Task\stroop 1.csv,109,1,1,103,103.01,encode,57,SPACE,"BLUE",1222,True,184031,32,48,"BLUE",1251,"blacksquare.bmp",501,
1/27/2016,11:14,C:\Documents and Settings\lab\Desktop\Tadpole\Stroop Task\stroop 1.csv,109,1,1,104,104.01,encode,57,SPACE,"YELLOW",930,True,185831,32,49,"YELLOW",950,"blacksquare.bmp",501,
1/27/2016,11:14,C:\Documents and Settings\lab\Desktop\Tadpole\Stroop Task\stroop 1.csv,109,1,1,105,105.01,encode,57,SPACE,"GREEN",1019,True,187331,32,49,"GREEN",1050,"blacksquare.bmp",501,
1/27/2016,11:14,C:\Documents and Settings\lab\Desktop\Tadpole\Stroop Task\stroop 1.csv,109,1,1,106,106.01,encode,57,SPACE,"YELLOW",1608,True,188931,32,49,"YELLOW",1633,"blacksquare.bmp",501,
1/27/2016,11:14,C:\Documents and Settings\lab\Desktop\Tadpole\Stroop Task\stroop 1.csv,109,1,1,107,107.01,encode,57,SPACE,"GREEN",1102,True,191114,33,49,"GREEN",1133,"blacksquare.bmp",502,
1/27/2016,11:14,C:\Documents and Settings\lab\Desktop\Tadpole\Stroop Task\stroop 1.csv,109,1,1,108,108.01,encode,57,SPACE,"BLUE",2462,True,192798,32,49,"BLUE",2483,"blacksquare.bmp",501,
1/27/2016,11:14,C:\Documents and Settings\lab\Desktop\Tadpole\Stroop Task\stroop 1.csv,109,1,1,109,109.01,encode,57,SPACE,"GREEN",1626,True,195831,32,49,"GREEN",1650,"blacksquare.bmp",501,
1/27/2016,11:14,C:\Documents and Settings\lab\Desktop\Tadpole\Stroop Task\stroop 1.csv,109,1,1,110,110.01,encode,57,SPACE,"BLUE",991,True,198031,33,49,"BLUE",1017,"blacksquare.bmp",501,
1/27/2016,11:14,C:\Documents and Settings\lab\Desktop\Tadpole\Stroop Task\stroop 1.csv,109,1,1,111,111.01,encode,57,SPACE,"YELLOW",1253,True,199598,32,49,"YELLOW",1283,"blacksquare.bmp",501,
1/27/2016,11:14,C:\Documents and Settings\lab\Desktop\Tadpole\Stroop Task\stroop 1.csv,109,1,1,112,112.01,encode,57,SPACE,"BLUE",914,True,201431,32,49,"BLUE",933,"blacksquare.bmp",501,
1/27/2016,11:14,C:\Documents and Settings\lab\Desktop\Tadpole\Stroop Task\stroop 1.csv,109,1,1,113,113.01,encode,57,SPACE,"BLUE",884,True,202914,32,49,"BLUE",900,"blacksquare.bmp",501,
1/27/2016,11:14,C:\Documents and Settings\lab\Desktop\Tadpole\Stroop Task\stroop 1.csv,109,1,1,114,114.01,encode,57,SPACE,"END",958,True,204364,33,49,"END",968,
