Date,Time,File,Subj,Cond,Block,Trial,Order,task,Resp,Name,Stim,RT,Correct,Started@,LoadTime,TotalInt,Stim 1,Time 1,Stim 2,Time 2,
2/2/2016,14:06,C:\Documents and Settings\lab\Desktop\Tadpole\Stroop Task\stroop 2.csv,112,1,1,1,1.01,encode,57,SPACE,"press spacebar to start practice",25375,True,0,117,151,"press spacebar to start practice",25419,
2/2/2016,14:06,C:\Documents and Settings\lab\Desktop\Tadpole\Stroop Task\stroop 2.csv,112,1,1,2,2.01,encode,57,SPACE,"YELLOW",2651,True,25570,48,65,"YELLOW",2684,"blacksquare.bmp",501,
2/2/2016,14:06,C:\Documents and Settings\lab\Desktop\Tadpole\Stroop Task\stroop 2.csv,112,1,1,3,3.01,encode,57,SPACE,"BLUE",2435,True,28820,32,48,"BLUE",2467,"blacksquare.bmp",485,
2/2/2016,14:06,C:\Documents and Settings\lab\Desktop\Tadpole\Stroop Task\stroop 2.csv,112,1,1,4,4.01,encode,57,SPACE,"RED",1547,True,31820,32,48,"RED",1567,"blacksquare.bmp",485,
2/2/2016,14:06,C:\Documents and Settings\lab\Desktop\Tadpole\Stroop Task\stroop 2.csv,112,1,1,5,5.01,encode,57,SPACE,"GREEN",1607,True,33920,31,48,"GREEN",1634,"blacksquare.bmp",484,
2/2/2016,14:06,C:\Documents and Settings\lab\Desktop\Tadpole\Stroop Task\stroop 2.csv,112,1,1,6,6.01,encode,57,SPACE,"RED",1704,True,36086,32,49,"RED",1733,"blacksquare.bmp",485,
2/2/2016,14:06,C:\Documents and Settings\lab\Desktop\Tadpole\Stroop Task\stroop 2.csv,112,1,1,7,7.01,encode,57,SPACE,"BLUE",1774,True,38353,32,49,"BLUE",1800,"blacksquare.bmp",485,
2/2/2016,14:06,C:\Documents and Settings\lab\Desktop\Tadpole\Stroop Task\stroop 2.csv,112,1,1,8,8.01,encode,57,SPACE,"GREEN",1536,True,40687,32,49,"GREEN",1566,"blacksquare.bmp",484,
2/2/2016,14:06,C:\Documents and Settings\lab\Desktop\Tadpole\Stroop Task\stroop 2.csv,112,1,1,9,9.01,encode,57,SPACE,"BLUE",1725,True,42786,33,49,"BLUE",1750,"blacksquare.bmp",485,
2/2/2016,14:06,C:\Documents and Settings\lab\Desktop\Tadpole\Stroop Task\stroop 2.csv,112,1,1,10,10.01,encode,57,SPACE,"GREEN",1778,True,45070,32,48,"GREEN",1801,"blacksquare.bmp",485,
2/2/2016,14:06,C:\Documents and Settings\lab\Desktop\Tadpole\Stroop Task\stroop 2.csv,112,1,1,11,11.01,encode,57,SPACE,"YELLOW",1772,True,47404,32,48,"YELLOW",1800,"blacksquare.bmp",485,
2/2/2016,14:06,C:\Documents and Settings\lab\Desktop\Tadpole\Stroop Task\stroop 2.csv,112,1,1,12,12.01,encode,57,SPACE,"END",1744,True,49737,32,48,"END",1767,"blacksquare.bmp",484,
2/2/2016,14:06,C:\Documents and Settings\lab\Desktop\Tadpole\Stroop Task\stroop 2.csv,112,1,1,13,13.01,encode,57,SPACE,"press spacebar to start task",46341,True,52036,33,49,"press spacebar to start task",46353,
2/2/2016,14:06,C:\Documents and Settings\lab\Desktop\Tadpole\Stroop Task\stroop 2.csv,112,1,1,14,14.01,encode,57,SPACE,"GREEN",2091,True,98438,32,49,"GREEN",2117,"blacksquare.bmp",100,
2/2/2016,14:06,C:\Documents and Settings\lab\Desktop\Tadpole\Stroop Task\stroop 2.csv,112,1,1,15,15.01,encode,57,SPACE,"BLUE",2017,True,100704,33,49,"BLUE",2034,"blacksquare.bmp",101,
2/2/2016,14:06,C:\Documents and Settings\lab\Desktop\Tadpole\Stroop Task\stroop 2.csv,112,1,1,16,16.01,encode,57,SPACE,"BLUE",1512,True,102888,32,49,"BLUE",1533,"blacksquare.bmp",102,
2/2/2016,14:06,C:\Documents and Settings\lab\Desktop\Tadpole\Stroop Task\stroop 2.csv,112,1,1,17,17.01,encode,57,SPACE,"YELLOW",2182,True,104572,32,48,"YELLOW",2201,"blacksquare.bmp",101,
2/2/2016,14:06,C:\Documents and Settings\lab\Desktop\Tadpole\Stroop Task\stroop 2.csv,112,1,1,18,18.01,encode,57,SPACE,"BLUE",1472,True,106922,31,48,"BLUE",1500,"blacksquare.bmp",102,
2/2/2016,14:06,C:\Documents and Settings\lab\Desktop\Tadpole\Stroop Task\stroop 2.csv,112,1,1,19,19.01,encode,57,SPACE,"BLUE",1573,True,108572,32,48,"BLUE",1601,"blacksquare.bmp",101,
2/2/2016,14:06,C:\Documents and Settings\lab\Desktop\Tadpole\Stroop Task\stroop 2.csv,112,1,1,20,20.01,encode,57,SPACE,"RED",2311,True,110322,32,48,"RED",2334,"blacksquare.bmp",101,
2/2/2016,14:06,C:\Documents and Settings\lab\Desktop\Tadpole\Stroop Task\stroop 2.csv,112,1,1,21,21.01,encode,57,SPACE,"RED",1587,True,112805,32,49,"RED",1617,"blacksquare.bmp",101,
2/2/2016,14:06,C:\Documents and Settings\lab\Desktop\Tadpole\Stroop Task\stroop 2.csv,112,1,1,22,22.01,encode,57,SPACE,"RED",1292,True,114572,32,48,"RED",1318,"blacksquare.bmp",100,
2/2/2016,14:06,C:\Documents and Settings\lab\Desktop\Tadpole\Stroop Task\stroop 2.csv,112,1,1,23,23.01,encode,57,SPACE,"RED",1465,True,116038,33,49,"RED",1484,"blacksquare.bmp",101,
2/2/2016,14:06,C:\Documents and Settings\lab\Desktop\Tadpole\Stroop Task\stroop 2.csv,112,1,1,24,24.01,encode,57,SPACE,"BLUE",1526,True,117672,32,49,"BLUE",1550,"blacksquare.bmp",101,
2/2/2016,14:06,C:\Documents and Settings\lab\Desktop\Tadpole\Stroop Task\stroop 2.csv,112,1,1,25,25.01,encode,57,SPACE,"YELLOW",2042,True,119372,33,49,"YELLOW",2067,"blacksquare.bmp",101,
2/2/2016,14:06,C:\Documents and Settings\lab\Desktop\Tadpole\Stroop Task\stroop 2.csv,112,1,1,26,26.01,encode,57,SPACE,"GREEN",1601,True,121589,31,49,"GREEN",1633,"blacksquare.bmp",101,
2/2/2016,14:06,C:\Documents and Settings\lab\Desktop\Tadpole\Stroop Task\stroop 2.csv,112,1,1,27,27.01,encode,57,SPACE,"YELLOW",2931,True,123372,33,49,"YELLOW",2950,"blacksquare.bmp",101,
2/2/2016,14:06,C:\Documents and Settings\lab\Desktop\Tadpole\Stroop Task\stroop 2.csv,112,1,1,28,28.01,encode,57,SPACE,"BLUE",1470,True,126472,32,49,"BLUE",1500,"blacksquare.bmp",101,
2/2/2016,14:06,C:\Documents and Settings\lab\Desktop\Tadpole\Stroop Task\stroop 2.csv,112,1,1,29,29.01,encode,57,SPACE,"YELLOW",1611,True,128122,33,49,"YELLOW",1633,"blacksquare.bmp",102,
2/2/2016,14:06,C:\Documents and Settings\lab\Desktop\Tadpole\Stroop Task\stroop 2.csv,112,1,1,30,30.01,encode,57,SPACE,"BLUE",1596,True,129906,32,48,"BLUE",1618,"blacksquare.bmp",100,
2/2/2016,14:06,C:\Documents and Settings\lab\Desktop\Tadpole\Stroop Task\stroop 2.csv,112,1,1,31,31.01,encode,57,SPACE,"GREEN",1813,True,131672,32,49,"GREEN",1833,"blacksquare.bmp",102,
2/2/2016,14:06,C:\Documents and Settings\lab\Desktop\Tadpole\Stroop Task\stroop 2.csv,112,1,1,32,32.01,encode,57,SPACE,"RED",1550,True,133656,32,48,"RED",1567,"blacksquare.bmp",101,
2/2/2016,14:06,C:\Documents and Settings\lab\Desktop\Tadpole\Stroop Task\stroop 2.csv,112,1,1,33,33.01,encode,57,SPACE,"YELLOW",1569,True,135372,33,49,"YELLOW",1601,"blacksquare.bmp",100,
2/2/2016,14:06,C:\Documents and Settings\lab\Desktop\Tadpole\Stroop Task\stroop 2.csv,112,1,1,34,34.01,encode,57,SPACE,"RED",1843,True,137122,33,49,"RED",1867,"blacksquare.bmp",101,
2/2/2016,14:06,C:\Documents and Settings\lab\Desktop\Tadpole\Stroop Task\stroop 2.csv,112,1,1,35,35.01,encode,57,SPACE,"YELLOW",1353,True,139139,32,49,"YELLOW",1384,"blacksquare.bmp",100,
2/2/2016,14:06,C:\Documents and Settings\lab\Desktop\Tadpole\Stroop Task\stroop 2.csv,112,1,1,36,36.01,encode,57,SPACE,"BLUE",1651,True,140672,32,49,"BLUE",1667,"blacksquare.bmp",102,
2/2/2016,14:06,C:\Documents and Settings\lab\Desktop\Tadpole\Stroop Task\stroop 2.csv,112,1,1,37,37.01,encode,57,SPACE,"BLUE",1714,True,142490,32,48,"BLUE",1734,"blacksquare.bmp",100,
2/2/2016,14:06,C:\Documents and Settings\lab\Desktop\Tadpole\Stroop Task\stroop 2.csv,112,1,1,38,38.01,encode,57,SPACE,"YELLOW",1711,True,144372,33,49,"YELLOW",1734,"blacksquare.bmp",101,
2/2/2016,14:06,C:\Documents and Settings\lab\Desktop\Tadpole\Stroop Task\stroop 2.csv,112,1,1,39,39.01,encode,57,SPACE,"YELLOW",1530,True,146256,32,49,"YELLOW",1550,"blacksquare.bmp",101,
2/2/2016,14:06,C:\Documents and Settings\lab\Desktop\Tadpole\Stroop Task\stroop 2.csv,112,1,1,40,40.01,encode,57,SPACE,"GREEN",1542,True,147956,33,49,"GREEN",1567,"blacksquare.bmp",101,
2/2/2016,14:06,C:\Documents and Settings\lab\Desktop\Tadpole\Stroop Task\stroop 2.csv,112,1,1,41,41.01,encode,57,SPACE,"YELLOW",1505,True,149673,32,49,"YELLOW",1533,"blacksquare.bmp",101,
2/2/2016,14:06,C:\Documents and Settings\lab\Desktop\Tadpole\Stroop Task\stroop 2.csv,112,1,1,42,42.01,encode,57,SPACE,"BLUE",1685,True,151356,32,49,"BLUE",1716,"blacksquare.bmp",102,
2/2/2016,14:06,C:\Documents and Settings\lab\Desktop\Tadpole\Stroop Task\stroop 2.csv,112,1,1,43,43.01,encode,57,SPACE,"GREEN",1452,True,153223,32,49,"GREEN",1483,"blacksquare.bmp",102,
2/2/2016,14:06,C:\Documents and Settings\lab\Desktop\Tadpole\Stroop Task\stroop 2.csv,112,1,1,44,44.01,encode,57,SPACE,"RED",1377,True,154857,31,48,"RED",1400,"blacksquare.bmp",102,
2/2/2016,14:06,C:\Documents and Settings\lab\Desktop\Tadpole\Stroop Task\stroop 2.csv,112,1,1,45,45.01,encode,57,SPACE,"GREEN",1410,True,156407,32,48,"GREEN",1433,"blacksquare.bmp",102,
2/2/2016,14:06,C:\Documents and Settings\lab\Desktop\Tadpole\Stroop Task\stroop 2.csv,112,1,1,46,46.01,encode,57,SPACE,"YELLOW",1362,True,157990,32,48,"YELLOW",1384,"blacksquare.bmp",101,
2/2/2016,14:06,C:\Documents and Settings\lab\Desktop\Tadpole\Stroop Task\stroop 2.csv,112,1,1,47,47.01,encode,57,SPACE,"RED",1347,True,159523,32,49,"RED",1367,"blacksquare.bmp",100,
2/2/2016,14:06,C:\Documents and Settings\lab\Desktop\Tadpole\Stroop Task\stroop 2.csv,112,1,1,48,48.01,encode,57,SPACE,"GREEN",1391,True,161039,33,49,"GREEN",1417,"blacksquare.bmp",102,
2/2/2016,14:06,C:\Documents and Settings\lab\Desktop\Tadpole\Stroop Task\stroop 2.csv,112,1,1,49,49.01,encode,57,SPACE,"YELLOW",1766,True,162607,32,49,"YELLOW",1783,"blacksquare.bmp",101,
2/2/2016,14:06,C:\Documents and Settings\lab\Desktop\Tadpole\Stroop Task\stroop 2.csv,112,1,1,50,50.01,encode,57,SPACE,"RED",1506,True,164540,32,48,"RED",1534,"blacksquare.bmp",101,
2/2/2016,14:06,C:\Documents and Settings\lab\Desktop\Tadpole\Stroop Task\stroop 2.csv,112,1,1,51,51.01,encode,57,SPACE,"YELLOW",1614,True,166223,32,49,"YELLOW",1634,"blacksquare.bmp",100,
2/2/2016,14:06,C:\Documents and Settings\lab\Desktop\Tadpole\Stroop Task\stroop 2.csv,112,1,1,52,52.01,encode,57,SPACE,"GREEN",1351,True,168006,32,49,"GREEN",1367,"blacksquare.bmp",102,
2/2/2016,14:06,C:\Documents and Settings\lab\Desktop\Tadpole\Stroop Task\stroop 2.csv,112,1,1,53,53.01,encode,57,SPACE,"RED",1303,True,169524,31,49,"RED",1333,"blacksquare.bmp",101,
2/2/2016,14:06,C:\Documents and Settings\lab\Desktop\Tadpole\Stroop Task\stroop 2.csv,112,1,1,54,54.01,encode,57,SPACE,"RED",1493,True,171007,31,48,"RED",1518,"blacksquare.bmp",100,
2/2/2016,14:06,C:\Documents and Settings\lab\Desktop\Tadpole\Stroop Task\stroop 2.csv,112,1,1,55,55.01,encode,57,SPACE,"GREEN",1218,True,172673,32,49,"GREEN",1233,"blacksquare.bmp",102,
2/2/2016,14:06,C:\Documents and Settings\lab\Desktop\Tadpole\Stroop Task\stroop 2.csv,112,1,1,56,56.01,encode,57,SPACE,"BLUE",1384,True,174057,32,49,"BLUE",1416,"blacksquare.bmp",101,
2/2/2016,14:06,C:\Documents and Settings\lab\Desktop\Tadpole\Stroop Task\stroop 2.csv,112,1,1,57,57.01,encode,57,SPACE,"RED",1274,True,175623,33,49,"RED",1300,"blacksquare.bmp",101,
2/2/2016,14:06,C:\Documents and Settings\lab\Desktop\Tadpole\Stroop Task\stroop 2.csv,112,1,1,58,58.01,encode,57,SPACE,"GREEN",1503,True,177073,33,49,"GREEN",1534,"blacksquare.bmp",101,
2/2/2016,14:06,C:\Documents and Settings\lab\Desktop\Tadpole\Stroop Task\stroop 2.csv,112,1,1,59,59.01,encode,57,SPACE,"RED",1226,True,178757,32,49,"RED",1250,"blacksquare.bmp",101,
2/2/2016,14:06,C:\Documents and Settings\lab\Desktop\Tadpole\Stroop Task\stroop 2.csv,112,1,1,60,60.01,encode,57,SPACE,"YELLOW",1435,True,180157,32,48,"YELLOW",1467,"blacksquare.bmp",102,
2/2/2016,14:06,C:\Documents and Settings\lab\Desktop\Tadpole\Stroop Task\stroop 2.csv,112,1,1,61,61.01,encode,57,SPACE,"YELLOW",1464,True,181774,32,49,"YELLOW",1483,"blacksquare.bmp",101,
2/2/2016,14:06,C:\Documents and Settings\lab\Desktop\Tadpole\Stroop Task\stroop 2.csv,112,1,1,62,62.01,encode,57,SPACE,"GREEN",1544,True,183407,32,48,"GREEN",1568,"blacksquare.bmp",100,
2/2/2016,14:06,C:\Documents and Settings\lab\Desktop\Tadpole\Stroop Task\stroop 2.csv,112,1,1,63,63.01,encode,57,SPACE,"YELLOW",1307,True,185123,33,49,"YELLOW",1334,"blacksquare.bmp",101,
2/2/2016,14:06,C:\Documents and Settings\lab\Desktop\Tadpole\Stroop Task\stroop 2.csv,112,1,1,64,64.01,encode,57,SPACE,"GREEN",1222,True,186607,32,49,"GREEN",1250,"blacksquare.bmp",101,
2/2/2016,14:06,C:\Documents and Settings\lab\Desktop\Tadpole\Stroop Task\stroop 2.csv,112,1,1,65,65.01,encode,57,SPACE,"YELLOW",1325,True,188007,32,49,"YELLOW",1350,"blacksquare.bmp",101,
2/2/2016,14:06,C:\Documents and Settings\lab\Desktop\Tadpole\Stroop Task\stroop 2.csv,112,1,1,66,66.01,encode,57,SPACE,"GREEN",1289,True,189507,32,49,"GREEN",1316,"blacksquare.bmp",102,
2/2/2016,14:06,C:\Documents and Settings\lab\Desktop\Tadpole\Stroop Task\stroop 2.csv,112,1,1,67,67.01,encode,57,SPACE,"BLUE",1029,True,190974,32,49,"BLUE",1050,"blacksquare.bmp",101,
2/2/2016,14:06,C:\Documents and Settings\lab\Desktop\Tadpole\Stroop Task\stroop 2.csv,112,1,1,68,68.01,encode,57,SPACE,"GREEN",1444,True,192174,32,49,"GREEN",1467,"blacksquare.bmp",100,
2/2/2016,14:06,C:\Documents and Settings\lab\Desktop\Tadpole\Stroop Task\stroop 2.csv,112,1,1,69,69.01,encode,57,SPACE,"GREEN",1163,True,193790,33,49,"GREEN",1184,"blacksquare.bmp",101,
2/2/2016,14:06,C:\Documents and Settings\lab\Desktop\Tadpole\Stroop Task\stroop 2.csv,112,1,1,70,70.01,encode,57,SPACE,"YELLOW",1324,True,195124,33,49,"YELLOW",1350,"blacksquare.bmp",101,
2/2/2016,14:06,C:\Documents and Settings\lab\Desktop\Tadpole\Stroop Task\stroop 2.csv,112,1,1,71,71.01,encode,57,SPACE,"RED",1849,True,196624,33,49,"RED",1866,"blacksquare.bmp",102,
2/2/2016,14:06,C:\Documents and Settings\lab\Desktop\Tadpole\Stroop Task\stroop 2.csv,112,1,1,72,72.01,encode,57,SPACE,"YELLOW",1543,True,198641,32,49,"YELLOW",1566,"blacksquare.bmp",102,
2/2/2016,14:06,C:\Documents and Settings\lab\Desktop\Tadpole\Stroop Task\stroop 2.csv,112,1,1,73,73.01,encode,57,SPACE,"GREEN",1674,True,200358,32,49,"GREEN",1700,"blacksquare.bmp",100,
2/2/2016,14:06,C:\Documents and Settings\lab\Desktop\Tadpole\Stroop Task\stroop 2.csv,112,1,1,74,74.01,encode,57,SPACE,"YELLOW",1545,True,202207,33,49,"YELLOW",1567,"blacksquare.bmp",101,
2/2/2016,14:06,C:\Documents and Settings\lab\Desktop\Tadpole\Stroop Task\stroop 2.csv,112,1,1,75,75.01,encode,57,SPACE,"BLUE",1811,True,203924,32,49,"BLUE",1833,"blacksquare.bmp",101,
2/2/2016,14:06,C:\Documents and Settings\lab\Desktop\Tadpole\Stroop Task\stroop 2.csv,112,1,1,76,76.01,encode,57,SPACE,"BLUE",1299,True,205907,33,49,"BLUE",1317,"blacksquare.bmp",101,
2/2/2016,14:06,C:\Documents and Settings\lab\Desktop\Tadpole\Stroop Task\stroop 2.csv,112,1,1,77,77.01,encode,57,SPACE,"GREEN",1464,True,207374,33,49,"GREEN",1484,"blacksquare.bmp",101,
2/2/2016,14:06,C:\Documents and Settings\lab\Desktop\Tadpole\Stroop Task\stroop 2.csv,112,1,1,78,78.01,encode,57,SPACE,"RED",1230,True,209008,31,48,"RED",1251,"blacksquare.bmp",100,
2/2/2016,14:06,C:\Documents and Settings\lab\Desktop\Tadpole\Stroop Task\stroop 2.csv,112,1,1,79,79.01,encode,57,SPACE,"YELLOW",1005,True,210407,33,49,"YELLOW",1034,"blacksquare.bmp",101,
2/2/2016,14:06,C:\Documents and Settings\lab\Desktop\Tadpole\Stroop Task\stroop 2.csv,112,1,1,80,80.01,encode,57,SPACE,"BLUE",1181,True,211591,32,49,"BLUE",1200,"blacksquare.bmp",101,
2/2/2016,14:06,C:\Documents and Settings\lab\Desktop\Tadpole\Stroop Task\stroop 2.csv,112,1,1,81,81.01,encode,57,SPACE,"RED",1254,True,212941,32,49,"RED",1284,"blacksquare.bmp",100,
2/2/2016,14:06,C:\Documents and Settings\lab\Desktop\Tadpole\Stroop Task\stroop 2.csv,112,1,1,82,82.01,encode,57,SPACE,"RED",1477,True,214374,33,49,"RED",1500,"blacksquare.bmp",102,
2/2/2016,14:06,C:\Documents and Settings\lab\Desktop\Tadpole\Stroop Task\stroop 2.csv,112,1,1,83,83.01,encode,57,SPACE,"BLUE",1257,True,216025,32,48,"BLUE",1284,"blacksquare.bmp",101,
2/2/2016,14:06,C:\Documents and Settings\lab\Desktop\Tadpole\Stroop Task\stroop 2.csv,112,1,1,84,84.01,encode,57,SPACE,"GREEN",2977,True,217458,32,49,"GREEN",3000,"blacksquare.bmp",101,
2/2/2016,14:06,C:\Documents and Settings\lab\Desktop\Tadpole\Stroop Task\stroop 2.csv,112,1,1,85,85.01,encode,57,SPACE,"BLUE",1209,True,220608,32,49,"BLUE",1233,"blacksquare.bmp",101,
2/2/2016,14:06,C:\Documents and Settings\lab\Desktop\Tadpole\Stroop Task\stroop 2.csv,112,1,1,86,86.01,encode,57,SPACE,"RED",2003,True,221991,33,49,"RED",2033,"blacksquare.bmp",102,
2/2/2016,14:06,C:\Documents and Settings\lab\Desktop\Tadpole\Stroop Task\stroop 2.csv,112,1,1,87,87.01,encode,57,SPACE,"BLUE",1250,True,224175,31,49,"BLUE",1266,"blacksquare.bmp",101,
2/2/2016,14:06,C:\Documents and Settings\lab\Desktop\Tadpole\Stroop Task\stroop 2.csv,112,1,1,88,88.01,encode,57,SPACE,"BLUE",1698,True,225591,32,49,"BLUE",1717,"blacksquare.bmp",101,
2/2/2016,14:06,C:\Documents and Settings\lab\Desktop\Tadpole\Stroop Task\stroop 2.csv,112,1,1,89,89.01,encode,57,SPACE,"BLUE",1422,True,227458,32,49,"BLUE",1450,"blacksquare.bmp",101,
2/2/2016,14:06,C:\Documents and Settings\lab\Desktop\Tadpole\Stroop Task\stroop 2.csv,112,1,1,90,90.01,encode,57,SPACE,"RED",1565,True,229058,32,49,"RED",1584,"blacksquare.bmp",100,
2/2/2016,14:06,C:\Documents and Settings\lab\Desktop\Tadpole\Stroop Task\stroop 2.csv,112,1,1,91,91.01,encode,57,SPACE,"RED",1481,True,230791,32,49,"RED",1500,"blacksquare.bmp",102,
2/2/2016,14:06,C:\Documents and Settings\lab\Desktop\Tadpole\Stroop Task\stroop 2.csv,112,1,1,92,92.01,encode,57,SPACE,"YELLOW",3167,True,232442,32,48,"YELLOW",3184,"blacksquare.bmp",101,
2/2/2016,14:06,C:\Documents and Settings\lab\Desktop\Tadpole\Stroop Task\stroop 2.csv,112,1,1,93,93.01,encode,57,SPACE,"RED",1898,True,235775,32,48,"RED",1917,"blacksquare.bmp",102,
2/2/2016,14:06,C:\Documents and Settings\lab\Desktop\Tadpole\Stroop Task\stroop 2.csv,112,1,1,94,94.01,encode,57,SPACE,"GREEN",1414,True,237842,32,49,"GREEN",1432,"blacksquare.bmp",102,
2/2/2016,14:06,C:\Documents and Settings\lab\Desktop\Tadpole\Stroop Task\stroop 2.csv,112,1,1,95,95.01,encode,57,SPACE,"RED",1630,True,239425,32,49,"RED",1650,"blacksquare.bmp",101,
2/2/2016,14:06,C:\Documents and Settings\lab\Desktop\Tadpole\Stroop Task\stroop 2.csv,112,1,1,96,96.01,encode,57,SPACE,"GREEN",1325,True,241225,32,49,"GREEN",1350,"blacksquare.bmp",101,
2/2/2016,14:06,C:\Documents and Settings\lab\Desktop\Tadpole\Stroop Task\stroop 2.csv,112,1,1,97,97.01,encode,57,SPACE,"YELLOW",1129,True,242725,32,49,"YELLOW",1150,"blacksquare.bmp",102,
2/2/2016,14:06,C:\Documents and Settings\lab\Desktop\Tadpole\Stroop Task\stroop 2.csv,112,1,1,98,98.01,encode,57,SPACE,"BLUE",1157,True,244026,31,47,"BLUE",1184,"blacksquare.bmp",102,
2/2/2016,14:06,C:\Documents and Settings\lab\Desktop\Tadpole\Stroop Task\stroop 2.csv,112,1,1,99,99.01,encode,57,SPACE,"BLUE",1054,True,245359,32,48,"BLUE",1083,"blacksquare.bmp",102,
2/2/2016,14:06,C:\Documents and Settings\lab\Desktop\Tadpole\Stroop Task\stroop 2.csv,112,1,1,100,100.01,encode,57,SPACE,"GREEN",1131,True,246592,32,49,"GREEN",1149,"blacksquare.bmp",102,
2/2/2016,14:06,C:\Documents and Settings\lab\Desktop\Tadpole\Stroop Task\stroop 2.csv,112,1,1,101,101.01,encode,57,SPACE,"GREEN",1335,True,247892,32,49,"GREEN",1367,"blacksquare.bmp",100,
2/2/2016,14:06,C:\Documents and Settings\lab\Desktop\Tadpole\Stroop Task\stroop 2.csv,112,1,1,102,102.01,encode,57,SPACE,"YELLOW",1658,True,249408,33,49,"YELLOW",1684,"blacksquare.bmp",101,
2/2/2016,14:06,C:\Documents and Settings\lab\Desktop\Tadpole\Stroop Task\stroop 2.csv,112,1,1,103,103.01,encode,57,SPACE,"RED",1152,True,251242,32,49,"RED",1183,"blacksquare.bmp",101,
2/2/2016,14:06,C:\Documents and Settings\lab\Desktop\Tadpole\Stroop Task\stroop 2.csv,112,1,1,104,104.01,encode,57,SPACE,"YELLOW",1178,True,252575,33,49,"YELLOW",1200,"blacksquare.bmp",101,
2/2/2016,14:06,C:\Documents and Settings\lab\Desktop\Tadpole\Stroop Task\stroop 2.csv,112,1,1,105,105.01,encode,57,SPACE,"RED",1347,True,253925,32,49,"RED",1367,"blacksquare.bmp",101,
2/2/2016,14:06,C:\Documents and Settings\lab\Desktop\Tadpole\Stroop Task\stroop 2.csv,112,1,1,106,106.01,encode,57,SPACE,"YELLOW",990,True,255442,32,48,"YELLOW",1018,"blacksquare.bmp",101,
2/2/2016,14:06,C:\Documents and Settings\lab\Desktop\Tadpole\Stroop Task\stroop 2.csv,112,1,1,107,107.01,encode,57,SPACE,"GREEN",1134,True,256609,32,48,"GREEN",1151,"blacksquare.bmp",100,
2/2/2016,14:06,C:\Documents and Settings\lab\Desktop\Tadpole\Stroop Task\stroop 2.csv,112,1,1,108,108.01,encode,57,SPACE,"RED",1434,True,257908,33,49,"RED",1450,"blacksquare.bmp",102,
2/2/2016,14:06,C:\Documents and Settings\lab\Desktop\Tadpole\Stroop Task\stroop 2.csv,112,1,1,109,109.01,encode,57,SPACE,"YELLOW",1128,True,259509,32,49,"YELLOW",1149,"blacksquare.bmp",102,
2/2/2016,14:06,C:\Documents and Settings\lab\Desktop\Tadpole\Stroop Task\stroop 2.csv,112,1,1,110,110.01,encode,57,SPACE,"BLUE",2364,True,260809,32,49,"BLUE",2383,"blacksquare.bmp",101,
2/2/2016,14:06,C:\Documents and Settings\lab\Desktop\Tadpole\Stroop Task\stroop 2.csv,112,1,1,111,111.01,encode,57,SPACE,"GREEN",1383,True,263342,32,49,"GREEN",1400,"blacksquare.bmp",102,
2/2/2016,14:06,C:\Documents and Settings\lab\Desktop\Tadpole\Stroop Task\stroop 2.csv,112,1,1,112,112.01,encode,57,SPACE,"BLUE",1216,True,264893,31,48,"BLUE",1233,"blacksquare.bmp",102,
2/2/2016,14:06,C:\Documents and Settings\lab\Desktop\Tadpole\Stroop Task\stroop 2.csv,112,1,1,113,113.01,encode,57,SPACE,"RED",1360,True,266276,32,48,"RED",1384,"blacksquare.bmp",101,
2/2/2016,14:06,C:\Documents and Settings\lab\Desktop\Tadpole\Stroop Task\stroop 2.csv,112,1,1,114,114.01,encode,57,SPACE,"END",3908,True,267809,32,49,"END",3933,"blacksquare.bmp",102,
