Date,Time,File,Subj,Cond,Block,Trial,Order,task,Resp,Name,Stim,RT,Correct,Started@,LoadTime,TotalInt,Stim 1,Time 1,Stim 2,Time 2,
5/2/2016,14:15,C:\Documents and Settings\lab\Desktop\Tadpole\Stroop Task\stroop 2.csv,122,1,1,1,1.01,encode,57,SPACE,"press spacebar to start practice",833,True,0,349,366,"press spacebar to start practice",835,
5/2/2016,14:15,C:\Documents and Settings\lab\Desktop\Tadpole\Stroop Task\stroop 2.csv,122,1,1,2,2.01,encode,57,SPACE,"YELLOW",1309,True,1201,148,165,"YELLOW",1334,"blacksquare.bmp",501,
5/2/2016,14:15,C:\Documents and Settings\lab\Desktop\Tadpole\Stroop Task\stroop 2.csv,122,1,1,3,3.01,encode,57,SPACE,"BLUE",784,True,3201,32,48,"BLUE",800,"blacksquare.bmp",501,
5/2/2016,14:15,C:\Documents and Settings\lab\Desktop\Tadpole\Stroop Task\stroop 2.csv,122,1,1,4,4.01,encode,57,SPACE,"RED",976,True,4550,32,49,"RED",1000,"blacksquare.bmp",501,
5/2/2016,14:15,C:\Documents and Settings\lab\Desktop\Tadpole\Stroop Task\stroop 2.csv,122,1,1,5,5.01,encode,57,SPACE,"GREEN",911,True,6100,32,49,"GREEN",933,"blacksquare.bmp",501,
5/2/2016,14:15,C:\Documents and Settings\lab\Desktop\Tadpole\Stroop Task\stroop 2.csv,122,1,1,6,6.01,encode,57,SPACE,"RED",960,True,7583,33,49,"RED",984,"blacksquare.bmp",502,
5/2/2016,14:15,C:\Documents and Settings\lab\Desktop\Tadpole\Stroop Task\stroop 2.csv,122,1,1,7,7.01,encode,57,SPACE,"BLUE",1017,True,9118,31,47,"BLUE",1035,"blacksquare.bmp",501,
5/2/2016,14:15,C:\Documents and Settings\lab\Desktop\Tadpole\Stroop Task\stroop 2.csv,122,1,1,8,8.01,encode,57,SPACE,"GREEN",862,True,10701,32,48,"GREEN",883,"blacksquare.bmp",502,
5/2/2016,14:15,C:\Documents and Settings\lab\Desktop\Tadpole\Stroop Task\stroop 2.csv,122,1,1,9,9.01,encode,57,SPACE,"BLUE",825,True,12134,32,49,"BLUE",850,"blacksquare.bmp",501,
5/2/2016,14:15,C:\Documents and Settings\lab\Desktop\Tadpole\Stroop Task\stroop 2.csv,122,1,1,10,10.01,encode,57,SPACE,"GREEN",711,True,13534,32,48,"GREEN",734,"blacksquare.bmp",501,
5/2/2016,14:15,C:\Documents and Settings\lab\Desktop\Tadpole\Stroop Task\stroop 2.csv,122,1,1,11,11.01,encode,57,SPACE,"YELLOW",849,True,14817,32,49,"YELLOW",867,"blacksquare.bmp",501,
5/2/2016,14:15,C:\Documents and Settings\lab\Desktop\Tadpole\Stroop Task\stroop 2.csv,122,1,1,12,12.01,encode,57,SPACE,"END",3228,True,16234,32,49,"END",3250,"blacksquare.bmp",501,
5/2/2016,14:15,C:\Documents and Settings\lab\Desktop\Tadpole\Stroop Task\stroop 2.csv,122,1,1,13,13.01,encode,57,SPACE,"press spacebar to start task",12596,True,20034,32,48,"press spacebar to start task",12602,
5/2/2016,14:15,C:\Documents and Settings\lab\Desktop\Tadpole\Stroop Task\stroop 2.csv,122,1,1,14,14.01,encode,57,SPACE,"GREEN",1014,True,32684,32,49,"GREEN",1033,"blacksquare.bmp",102,
5/2/2016,14:15,C:\Documents and Settings\lab\Desktop\Tadpole\Stroop Task\stroop 2.csv,122,1,1,15,15.01,encode,57,SPACE,"BLUE",964,True,33868,32,48,"BLUE",984,"blacksquare.bmp",101,
5/2/2016,14:15,C:\Documents and Settings\lab\Desktop\Tadpole\Stroop Task\stroop 2.csv,122,1,1,16,16.01,encode,57,SPACE,"BLUE",917,True,35001,32,48,"BLUE",934,"blacksquare.bmp",101,
5/2/2016,14:15,C:\Documents and Settings\lab\Desktop\Tadpole\Stroop Task\stroop 2.csv,122,1,1,17,17.01,encode,57,SPACE,"YELLOW",1007,True,36084,33,49,"YELLOW",1033,"blacksquare.bmp",102,
5/2/2016,14:15,C:\Documents and Settings\lab\Desktop\Tadpole\Stroop Task\stroop 2.csv,122,1,1,18,18.01,encode,57,SPACE,"BLUE",860,True,37268,31,49,"BLUE",883,"blacksquare.bmp",101,
5/2/2016,14:15,C:\Documents and Settings\lab\Desktop\Tadpole\Stroop Task\stroop 2.csv,122,1,1,19,19.01,encode,57,SPACE,"BLUE",952,True,38301,32,49,"BLUE",983,"blacksquare.bmp",101,
5/2/2016,14:15,C:\Documents and Settings\lab\Desktop\Tadpole\Stroop Task\stroop 2.csv,122,1,1,20,20.01,encode,57,SPACE,"RED",1304,True,39434,32,49,"RED",1334,"blacksquare.bmp",100,
5/2/2016,14:15,C:\Documents and Settings\lab\Desktop\Tadpole\Stroop Task\stroop 2.csv,122,1,1,21,21.01,encode,57,SPACE,"RED",1027,True,40917,33,49,"RED",1050,"blacksquare.bmp",102,
5/2/2016,14:15,C:\Documents and Settings\lab\Desktop\Tadpole\Stroop Task\stroop 2.csv,122,1,1,22,22.01,encode,57,SPACE,"RED",888,True,42118,32,48,"RED",917,"blacksquare.bmp",101,
5/2/2016,14:15,C:\Documents and Settings\lab\Desktop\Tadpole\Stroop Task\stroop 2.csv,122,1,1,23,23.01,encode,57,SPACE,"RED",907,True,43184,32,49,"RED",933,"blacksquare.bmp",102,
5/2/2016,14:15,C:\Documents and Settings\lab\Desktop\Tadpole\Stroop Task\stroop 2.csv,122,1,1,24,24.01,encode,57,SPACE,"BLUE",948,True,44268,32,49,"BLUE",967,"blacksquare.bmp",100,
5/2/2016,14:15,C:\Documents and Settings\lab\Desktop\Tadpole\Stroop Task\stroop 2.csv,122,1,1,25,25.01,encode,57,SPACE,"YELLOW",910,True,45384,32,49,"YELLOW",934,"blacksquare.bmp",101,
5/2/2016,14:15,C:\Documents and Settings\lab\Desktop\Tadpole\Stroop Task\stroop 2.csv,122,1,1,26,26.01,encode,57,SPACE,"GREEN",799,True,46468,31,49,"GREEN",816,"blacksquare.bmp",101,
5/2/2016,14:15,C:\Documents and Settings\lab\Desktop\Tadpole\Stroop Task\stroop 2.csv,122,1,1,27,27.01,encode,57,SPACE,"YELLOW",886,True,47434,32,49,"YELLOW",917,"blacksquare.bmp",101,
5/2/2016,14:15,C:\Documents and Settings\lab\Desktop\Tadpole\Stroop Task\stroop 2.csv,122,1,1,28,28.01,encode,57,SPACE,"BLUE",849,True,48501,33,49,"BLUE",866,"blacksquare.bmp",102,
5/2/2016,14:15,C:\Documents and Settings\lab\Desktop\Tadpole\Stroop Task\stroop 2.csv,122,1,1,29,29.01,encode,57,SPACE,"YELLOW",845,True,49518,32,49,"YELLOW",866,"blacksquare.bmp",102,
5/2/2016,14:15,C:\Documents and Settings\lab\Desktop\Tadpole\Stroop Task\stroop 2.csv,122,1,1,30,30.01,encode,57,SPACE,"BLUE",874,True,50535,32,48,"BLUE",900,"blacksquare.bmp",101,
5/2/2016,14:15,C:\Documents and Settings\lab\Desktop\Tadpole\Stroop Task\stroop 2.csv,122,1,1,31,31.01,encode,57,SPACE,"GREEN",990,True,51584,33,49,"GREEN",1017,"blacksquare.bmp",101,
5/2/2016,14:15,C:\Documents and Settings\lab\Desktop\Tadpole\Stroop Task\stroop 2.csv,122,1,1,32,32.01,encode,57,SPACE,"RED",853,True,52751,33,49,"RED",883,"blacksquare.bmp",102,
5/2/2016,14:15,C:\Documents and Settings\lab\Desktop\Tadpole\Stroop Task\stroop 2.csv,122,1,1,33,33.01,encode,57,SPACE,"YELLOW",841,True,53785,32,48,"YELLOW",867,"blacksquare.bmp",101,
5/2/2016,14:15,C:\Documents and Settings\lab\Desktop\Tadpole\Stroop Task\stroop 2.csv,122,1,1,34,34.01,encode,57,SPACE,"RED",813,True,54801,32,49,"RED",833,"blacksquare.bmp",102,
5/2/2016,14:15,C:\Documents and Settings\lab\Desktop\Tadpole\Stroop Task\stroop 2.csv,122,1,1,35,35.01,encode,57,SPACE,"YELLOW",860,True,55785,32,48,"YELLOW",884,"blacksquare.bmp",101,
5/2/2016,14:15,C:\Documents and Settings\lab\Desktop\Tadpole\Stroop Task\stroop 2.csv,122,1,1,36,36.01,encode,57,SPACE,"BLUE",776,True,56818,32,49,"BLUE",799,"blacksquare.bmp",102,
5/2/2016,14:15,C:\Documents and Settings\lab\Desktop\Tadpole\Stroop Task\stroop 2.csv,122,1,1,37,37.01,encode,57,SPACE,"BLUE",935,True,57768,32,49,"BLUE",967,"blacksquare.bmp",100,
5/2/2016,14:15,C:\Documents and Settings\lab\Desktop\Tadpole\Stroop Task\stroop 2.csv,122,1,1,38,38.01,encode,57,SPACE,"YELLOW",1448,True,58884,32,49,"YELLOW",1467,"blacksquare.bmp",101,
5/2/2016,14:15,C:\Documents and Settings\lab\Desktop\Tadpole\Stroop Task\stroop 2.csv,122,1,1,39,39.01,encode,57,SPACE,"YELLOW",1252,True,60501,33,49,"YELLOW",1283,"blacksquare.bmp",102,
5/2/2016,14:15,C:\Documents and Settings\lab\Desktop\Tadpole\Stroop Task\stroop 2.csv,122,1,1,40,40.01,encode,57,SPACE,"GREEN",1048,True,61935,32,49,"GREEN",1066,"blacksquare.bmp",102,
5/2/2016,14:15,C:\Documents and Settings\lab\Desktop\Tadpole\Stroop Task\stroop 2.csv,122,1,1,41,41.01,encode,57,SPACE,"YELLOW",924,True,63152,31,49,"YELLOW",949,"blacksquare.bmp",101,
5/2/2016,14:15,C:\Documents and Settings\lab\Desktop\Tadpole\Stroop Task\stroop 2.csv,122,1,1,42,42.01,encode,57,SPACE,"BLUE",1038,True,64251,33,49,"BLUE",1067,"blacksquare.bmp",101,
5/2/2016,14:15,C:\Documents and Settings\lab\Desktop\Tadpole\Stroop Task\stroop 2.csv,122,1,1,43,43.01,encode,57,SPACE,"GREEN",891,True,65468,32,49,"GREEN",917,"blacksquare.bmp",101,
5/2/2016,14:15,C:\Documents and Settings\lab\Desktop\Tadpole\Stroop Task\stroop 2.csv,122,1,1,44,44.01,encode,57,SPACE,"RED",855,True,66535,32,48,"RED",884,"blacksquare.bmp",101,
5/2/2016,14:15,C:\Documents and Settings\lab\Desktop\Tadpole\Stroop Task\stroop 2.csv,122,1,1,45,45.01,encode,57,SPACE,"GREEN",881,True,67568,32,49,"GREEN",900,"blacksquare.bmp",102,
5/2/2016,14:15,C:\Documents and Settings\lab\Desktop\Tadpole\Stroop Task\stroop 2.csv,122,1,1,46,46.01,encode,57,SPACE,"YELLOW",837,True,68619,31,48,"YELLOW",867,"blacksquare.bmp",101,
5/2/2016,14:15,C:\Documents and Settings\lab\Desktop\Tadpole\Stroop Task\stroop 2.csv,122,1,1,47,47.01,encode,57,SPACE,"RED",850,True,69635,32,49,"RED",866,"blacksquare.bmp",102,
5/2/2016,14:15,C:\Documents and Settings\lab\Desktop\Tadpole\Stroop Task\stroop 2.csv,122,1,1,48,48.01,encode,57,SPACE,"GREEN",894,True,70652,32,49,"GREEN",916,"blacksquare.bmp",101,
5/2/2016,14:15,C:\Documents and Settings\lab\Desktop\Tadpole\Stroop Task\stroop 2.csv,122,1,1,49,49.01,encode,57,SPACE,"YELLOW",913,True,71718,32,49,"YELLOW",934,"blacksquare.bmp",100,
5/2/2016,14:15,C:\Documents and Settings\lab\Desktop\Tadpole\Stroop Task\stroop 2.csv,122,1,1,50,50.01,encode,57,SPACE,"RED",780,True,72801,32,49,"RED",801,"blacksquare.bmp",100,
5/2/2016,14:15,C:\Documents and Settings\lab\Desktop\Tadpole\Stroop Task\stroop 2.csv,122,1,1,51,51.01,encode,57,SPACE,"YELLOW",1140,True,73751,33,49,"YELLOW",1167,"blacksquare.bmp",101,
5/2/2016,14:15,C:\Documents and Settings\lab\Desktop\Tadpole\Stroop Task\stroop 2.csv,122,1,1,52,52.01,encode,57,SPACE,"GREEN",1931,True,75068,32,49,"GREEN",1950,"blacksquare.bmp",101,
5/2/2016,14:15,C:\Documents and Settings\lab\Desktop\Tadpole\Stroop Task\stroop 2.csv,122,1,1,53,53.01,encode,57,SPACE,"RED",973,True,77168,33,49,"RED",1000,"blacksquare.bmp",102,
5/2/2016,14:15,C:\Documents and Settings\lab\Desktop\Tadpole\Stroop Task\stroop 2.csv,122,1,1,54,54.01,encode,57,SPACE,"RED",1020,True,78319,31,48,"RED",1050,"blacksquare.bmp",101,
5/2/2016,14:15,C:\Documents and Settings\lab\Desktop\Tadpole\Stroop Task\stroop 2.csv,122,1,1,55,55.01,encode,57,SPACE,"GREEN",993,True,79518,32,49,"GREEN",1016,"blacksquare.bmp",102,
5/2/2016,14:15,C:\Documents and Settings\lab\Desktop\Tadpole\Stroop Task\stroop 2.csv,122,1,1,56,56.01,encode,57,SPACE,"BLUE",1015,True,80685,32,49,"BLUE",1033,"blacksquare.bmp",102,
5/2/2016,14:15,C:\Documents and Settings\lab\Desktop\Tadpole\Stroop Task\stroop 2.csv,122,1,1,57,57.01,encode,57,SPACE,"RED",1342,True,81869,32,48,"RED",1367,"blacksquare.bmp",101,
5/2/2016,14:15,C:\Documents and Settings\lab\Desktop\Tadpole\Stroop Task\stroop 2.csv,122,1,1,58,58.01,encode,57,SPACE,"GREEN",918,True,83385,32,49,"GREEN",950,"blacksquare.bmp",101,
5/2/2016,14:15,C:\Documents and Settings\lab\Desktop\Tadpole\Stroop Task\stroop 2.csv,122,1,1,59,59.01,encode,57,SPACE,"RED",936,True,84485,32,49,"RED",966,"blacksquare.bmp",102,
5/2/2016,14:15,C:\Documents and Settings\lab\Desktop\Tadpole\Stroop Task\stroop 2.csv,122,1,1,60,60.01,encode,57,SPACE,"YELLOW",953,True,85602,32,49,"YELLOW",983,"blacksquare.bmp",101,
5/2/2016,14:15,C:\Documents and Settings\lab\Desktop\Tadpole\Stroop Task\stroop 2.csv,122,1,1,61,61.01,encode,57,SPACE,"YELLOW",1081,True,86735,32,49,"YELLOW",1100,"blacksquare.bmp",101,
5/2/2016,14:15,C:\Documents and Settings\lab\Desktop\Tadpole\Stroop Task\stroop 2.csv,122,1,1,62,62.01,encode,57,SPACE,"GREEN",892,True,87985,32,49,"GREEN",917,"blacksquare.bmp",101,
5/2/2016,14:15,C:\Documents and Settings\lab\Desktop\Tadpole\Stroop Task\stroop 2.csv,122,1,1,63,63.01,encode,57,SPACE,"YELLOW",799,True,89052,32,49,"YELLOW",816,"blacksquare.bmp",102,
5/2/2016,14:15,C:\Documents and Settings\lab\Desktop\Tadpole\Stroop Task\stroop 2.csv,122,1,1,64,64.01,encode,57,SPACE,"GREEN",934,True,90019,31,48,"GREEN",950,"blacksquare.bmp",102,
5/2/2016,14:15,C:\Documents and Settings\lab\Desktop\Tadpole\Stroop Task\stroop 2.csv,122,1,1,65,65.01,encode,57,SPACE,"YELLOW",863,True,91119,32,48,"YELLOW",883,"blacksquare.bmp",102,
5/2/2016,14:15,C:\Documents and Settings\lab\Desktop\Tadpole\Stroop Task\stroop 2.csv,122,1,1,66,66.01,encode,57,SPACE,"GREEN",995,True,92152,32,49,"GREEN",1016,"blacksquare.bmp",102,
5/2/2016,14:15,C:\Documents and Settings\lab\Desktop\Tadpole\Stroop Task\stroop 2.csv,122,1,1,67,67.01,encode,57,SPACE,"BLUE",809,True,93319,32,49,"BLUE",833,"blacksquare.bmp",101,
5/2/2016,14:15,C:\Documents and Settings\lab\Desktop\Tadpole\Stroop Task\stroop 2.csv,122,1,1,68,68.01,encode,57,SPACE,"GREEN",871,True,94302,32,49,"GREEN",899,"blacksquare.bmp",102,
5/2/2016,14:15,C:\Documents and Settings\lab\Desktop\Tadpole\Stroop Task\stroop 2.csv,122,1,1,69,69.01,encode,57,SPACE,"GREEN",811,True,95352,32,49,"GREEN",833,"blacksquare.bmp",101,
5/2/2016,14:15,C:\Documents and Settings\lab\Desktop\Tadpole\Stroop Task\stroop 2.csv,122,1,1,70,70.01,encode,57,SPACE,"YELLOW",802,True,96335,33,49,"YELLOW",833,"blacksquare.bmp",102,
5/2/2016,14:15,C:\Documents and Settings\lab\Desktop\Tadpole\Stroop Task\stroop 2.csv,122,1,1,71,71.01,encode,57,SPACE,"RED",974,True,97319,32,49,"RED",1000,"blacksquare.bmp",100,
5/2/2016,14:15,C:\Documents and Settings\lab\Desktop\Tadpole\Stroop Task\stroop 2.csv,122,1,1,72,72.01,encode,57,SPACE,"YELLOW",768,True,98468,32,49,"YELLOW",784,"blacksquare.bmp",101,
5/2/2016,14:15,C:\Documents and Settings\lab\Desktop\Tadpole\Stroop Task\stroop 2.csv,122,1,1,73,73.01,encode,57,SPACE,"GREEN",1319,True,99402,32,49,"GREEN",1350,"blacksquare.bmp",101,
5/2/2016,14:15,C:\Documents and Settings\lab\Desktop\Tadpole\Stroop Task\stroop 2.csv,122,1,1,74,74.01,encode,57,SPACE,"YELLOW",1040,True,100902,32,49,"YELLOW",1066,"blacksquare.bmp",102,
5/2/2016,14:15,C:\Documents and Settings\lab\Desktop\Tadpole\Stroop Task\stroop 2.csv,122,1,1,75,75.01,encode,57,SPACE,"BLUE",862,True,102119,32,48,"BLUE",884,"blacksquare.bmp",101,
5/2/2016,14:15,C:\Documents and Settings\lab\Desktop\Tadpole\Stroop Task\stroop 2.csv,122,1,1,76,76.01,encode,57,SPACE,"BLUE",968,True,103152,32,49,"BLUE",1000,"blacksquare.bmp",101,
5/2/2016,14:15,C:\Documents and Settings\lab\Desktop\Tadpole\Stroop Task\stroop 2.csv,122,1,1,77,77.01,encode,57,SPACE,"GREEN",952,True,104302,32,49,"GREEN",983,"blacksquare.bmp",101,
5/2/2016,14:15,C:\Documents and Settings\lab\Desktop\Tadpole\Stroop Task\stroop 2.csv,122,1,1,78,78.01,encode,57,SPACE,"RED",912,True,105435,32,49,"RED",933,"blacksquare.bmp",102,
5/2/2016,14:15,C:\Documents and Settings\lab\Desktop\Tadpole\Stroop Task\stroop 2.csv,122,1,1,79,79.01,encode,57,SPACE,"YELLOW",778,True,106519,32,49,"YELLOW",800,"blacksquare.bmp",101,
5/2/2016,14:15,C:\Documents and Settings\lab\Desktop\Tadpole\Stroop Task\stroop 2.csv,122,1,1,80,80.01,encode,57,SPACE,"BLUE",857,True,107469,32,49,"BLUE",883,"blacksquare.bmp",101,
5/2/2016,14:15,C:\Documents and Settings\lab\Desktop\Tadpole\Stroop Task\stroop 2.csv,122,1,1,81,81.01,encode,57,SPACE,"RED",1197,True,108502,33,49,"RED",1217,"blacksquare.bmp",101,
5/2/2016,14:15,C:\Documents and Settings\lab\Desktop\Tadpole\Stroop Task\stroop 2.csv,122,1,1,82,82.01,encode,57,SPACE,"RED",893,True,109869,32,48,"RED",917,"blacksquare.bmp",102,
5/2/2016,14:15,C:\Documents and Settings\lab\Desktop\Tadpole\Stroop Task\stroop 2.csv,122,1,1,83,83.01,encode,57,SPACE,"BLUE",1080,True,110936,31,48,"BLUE",1100,"blacksquare.bmp",102,
5/2/2016,14:15,C:\Documents and Settings\lab\Desktop\Tadpole\Stroop Task\stroop 2.csv,122,1,1,84,84.01,encode,57,SPACE,"GREEN",1313,True,112186,31,49,"GREEN",1333,"blacksquare.bmp",101,
5/2/2016,14:15,C:\Documents and Settings\lab\Desktop\Tadpole\Stroop Task\stroop 2.csv,122,1,1,85,85.01,encode,57,SPACE,"BLUE",1028,True,113669,32,48,"BLUE",1051,"blacksquare.bmp",101,
5/2/2016,14:15,C:\Documents and Settings\lab\Desktop\Tadpole\Stroop Task\stroop 2.csv,122,1,1,86,86.01,encode,57,SPACE,"RED",1953,True,114869,32,48,"RED",1984,"blacksquare.bmp",101,
5/2/2016,14:15,C:\Documents and Settings\lab\Desktop\Tadpole\Stroop Task\stroop 2.csv,122,1,1,87,87.01,encode,57,SPACE,"BLUE",1169,True,117002,33,49,"BLUE",1200,"blacksquare.bmp",101,
5/2/2016,14:15,C:\Documents and Settings\lab\Desktop\Tadpole\Stroop Task\stroop 2.csv,122,1,1,88,88.01,encode,57,SPACE,"BLUE",928,True,118352,32,49,"BLUE",950,"blacksquare.bmp",101,
5/2/2016,14:15,C:\Documents and Settings\lab\Desktop\Tadpole\Stroop Task\stroop 2.csv,122,1,1,89,89.01,encode,57,SPACE,"BLUE",810,True,119452,33,49,"BLUE",833,"blacksquare.bmp",102,
5/2/2016,14:15,C:\Documents and Settings\lab\Desktop\Tadpole\Stroop Task\stroop 2.csv,122,1,1,90,90.01,encode,57,SPACE,"RED",975,True,120436,32,49,"RED",1000,"blacksquare.bmp",100,
5/2/2016,14:15,C:\Documents and Settings\lab\Desktop\Tadpole\Stroop Task\stroop 2.csv,122,1,1,91,91.01,encode,57,SPACE,"RED",1031,True,121585,33,49,"RED",1050,"blacksquare.bmp",101,
5/2/2016,14:15,C:\Documents and Settings\lab\Desktop\Tadpole\Stroop Task\stroop 2.csv,122,1,1,92,92.01,encode,57,SPACE,"YELLOW",829,True,122785,33,49,"YELLOW",851,"blacksquare.bmp",100,
5/2/2016,14:15,C:\Documents and Settings\lab\Desktop\Tadpole\Stroop Task\stroop 2.csv,122,1,1,93,93.01,encode,57,SPACE,"RED",771,True,123785,33,49,"RED",800,"blacksquare.bmp",102,
5/2/2016,14:15,C:\Documents and Settings\lab\Desktop\Tadpole\Stroop Task\stroop 2.csv,122,1,1,94,94.01,encode,57,SPACE,"GREEN",713,True,124736,32,49,"GREEN",733,"blacksquare.bmp",101,
5/2/2016,14:15,C:\Documents and Settings\lab\Desktop\Tadpole\Stroop Task\stroop 2.csv,122,1,1,95,95.01,encode,57,SPACE,"RED",861,True,125619,32,48,"RED",884,"blacksquare.bmp",102,
5/2/2016,14:15,C:\Documents and Settings\lab\Desktop\Tadpole\Stroop Task\stroop 2.csv,122,1,1,96,96.01,encode,57,SPACE,"GREEN",783,True,126653,32,49,"GREEN",799,"blacksquare.bmp",102,
5/2/2016,14:15,C:\Documents and Settings\lab\Desktop\Tadpole\Stroop Task\stroop 2.csv,122,1,1,97,97.01,encode,57,SPACE,"YELLOW",855,True,127603,31,48,"YELLOW",884,"blacksquare.bmp",101,
5/2/2016,14:15,C:\Documents and Settings\lab\Desktop\Tadpole\Stroop Task\stroop 2.csv,122,1,1,98,98.01,encode,57,SPACE,"BLUE",907,True,128636,32,49,"BLUE",933,"blacksquare.bmp",101,
5/2/2016,14:15,C:\Documents and Settings\lab\Desktop\Tadpole\Stroop Task\stroop 2.csv,122,1,1,99,99.01,encode,57,SPACE,"BLUE",925,True,129719,32,49,"BLUE",950,"blacksquare.bmp",101,
5/2/2016,14:15,C:\Documents and Settings\lab\Desktop\Tadpole\Stroop Task\stroop 2.csv,122,1,1,100,100.01,encode,57,SPACE,"GREEN",879,True,130819,32,49,"GREEN",900,"blacksquare.bmp",101,
5/2/2016,14:15,C:\Documents and Settings\lab\Desktop\Tadpole\Stroop Task\stroop 2.csv,122,1,1,101,101.01,encode,57,SPACE,"GREEN",2217,True,131869,33,49,"GREEN",2234,"blacksquare.bmp",100,
5/2/2016,14:15,C:\Documents and Settings\lab\Desktop\Tadpole\Stroop Task\stroop 2.csv,122,1,1,102,102.01,encode,57,SPACE,"YELLOW",1000,True,134252,33,49,"YELLOW",1017,"blacksquare.bmp",101,
5/2/2016,14:15,C:\Documents and Settings\lab\Desktop\Tadpole\Stroop Task\stroop 2.csv,122,1,1,103,103.01,encode,57,SPACE,"RED",1901,True,135419,33,49,"RED",1934,"blacksquare.bmp",100,
5/2/2016,14:15,C:\Documents and Settings\lab\Desktop\Tadpole\Stroop Task\stroop 2.csv,122,1,1,104,104.01,encode,57,SPACE,"YELLOW",1088,True,137502,33,49,"YELLOW",1117,"blacksquare.bmp",101,
5/2/2016,14:15,C:\Documents and Settings\lab\Desktop\Tadpole\Stroop Task\stroop 2.csv,122,1,1,105,105.01,encode,57,SPACE,"RED",963,True,138769,32,49,"RED",983,"blacksquare.bmp",102,
5/2/2016,14:15,C:\Documents and Settings\lab\Desktop\Tadpole\Stroop Task\stroop 2.csv,122,1,1,106,106.01,encode,57,SPACE,"YELLOW",1057,True,139903,32,49,"YELLOW",1083,"blacksquare.bmp",101,
5/2/2016,14:15,C:\Documents and Settings\lab\Desktop\Tadpole\Stroop Task\stroop 2.csv,122,1,1,107,107.01,encode,57,SPACE,"GREEN",1054,True,141136,32,49,"GREEN",1083,"blacksquare.bmp",101,
5/2/2016,14:15,C:\Documents and Settings\lab\Desktop\Tadpole\Stroop Task\stroop 2.csv,122,1,1,108,108.01,encode,57,SPACE,"RED",1546,True,142369,33,49,"RED",1567,"blacksquare.bmp",101,
5/2/2016,14:15,C:\Documents and Settings\lab\Desktop\Tadpole\Stroop Task\stroop 2.csv,122,1,1,109,109.01,encode,57,SPACE,"YELLOW",1250,True,144086,33,49,"YELLOW",1267,"blacksquare.bmp",100,
5/2/2016,14:15,C:\Documents and Settings\lab\Desktop\Tadpole\Stroop Task\stroop 2.csv,122,1,1,110,110.01,encode,57,SPACE,"BLUE",1343,True,145502,33,49,"BLUE",1367,"blacksquare.bmp",102,
5/2/2016,14:15,C:\Documents and Settings\lab\Desktop\Tadpole\Stroop Task\stroop 2.csv,122,1,1,111,111.01,encode,57,SPACE,"GREEN",992,True,147020,31,48,"GREEN",1017,"blacksquare.bmp",101,
5/2/2016,14:15,C:\Documents and Settings\lab\Desktop\Tadpole\Stroop Task\stroop 2.csv,122,1,1,112,112.01,encode,57,SPACE,"BLUE",830,True,148186,32,49,"BLUE",850,"blacksquare.bmp",101,
5/2/2016,14:15,C:\Documents and Settings\lab\Desktop\Tadpole\Stroop Task\stroop 2.csv,122,1,1,113,113.01,encode,57,SPACE,"RED",1299,True,149186,32,49,"RED",1316,"blacksquare.bmp",102,
5/2/2016,14:15,C:\Documents and Settings\lab\Desktop\Tadpole\Stroop Task\stroop 2.csv,122,1,1,114,114.01,encode,57,SPACE,"END",1005,True,150653,32,49,"END",1033,"blacksquare.bmp",101,
