Date,Time,File,Subj,Cond,Block,Trial,Order,task,Resp,Name,Stim,RT,Correct,Started@,LoadTime,TotalInt,Stim 1,Time 1,Stim 2,Time 2
10/7/2016,15:04,C:\Documents and Settings\lab\Desktop\Tadpole\Stroop Task\stroop 2.csv,138,1,1,1,1.01,encode,57,SPACE,press spacebar to start practice,11272,TRUE,0,149,166,press spacebar to start practice,11285,,
10/7/2016,15:04,C:\Documents and Settings\lab\Desktop\Tadpole\Stroop Task\stroop 2.csv,138,1,1,2,2.01,encode,57,SPACE,YELLOW,2911,TRUE,11451,249,265,YELLOW,2934,blacksquare.bmp,484
10/7/2016,15:04,C:\Documents and Settings\lab\Desktop\Tadpole\Stroop Task\stroop 2.csv,138,1,1,3,3.01,encode,57,SPACE,BLUE,1777,TRUE,15134,33,49,BLUE,1800,blacksquare.bmp,484
10/7/2016,15:04,C:\Documents and Settings\lab\Desktop\Tadpole\Stroop Task\stroop 2.csv,138,1,1,4,4.01,encode,57,SPACE,RED,1336,TRUE,17467,33,49,RED,1367,blacksquare.bmp,485
10/7/2016,15:04,C:\Documents and Settings\lab\Desktop\Tadpole\Stroop Task\stroop 2.csv,138,1,1,5,5.01,encode,57,SPACE,GREEN,1377,TRUE,19368,32,49,GREEN,1399,blacksquare.bmp,485
10/7/2016,15:04,C:\Documents and Settings\lab\Desktop\Tadpole\Stroop Task\stroop 2.csv,138,1,1,6,6.01,encode,57,SPACE,RED,1353,TRUE,21301,32,49,RED,1383,blacksquare.bmp,484
10/7/2016,15:04,C:\Documents and Settings\lab\Desktop\Tadpole\Stroop Task\stroop 2.csv,138,1,1,7,7.01,encode,57,SPACE,BLUE,1609,TRUE,23217,33,49,BLUE,1634,blacksquare.bmp,484
10/7/2016,15:04,C:\Documents and Settings\lab\Desktop\Tadpole\Stroop Task\stroop 2.csv,138,1,1,8,8.01,encode,57,SPACE,GREEN,1295,TRUE,25384,33,49,GREEN,1317,blacksquare.bmp,484
10/7/2016,15:04,C:\Documents and Settings\lab\Desktop\Tadpole\Stroop Task\stroop 2.csv,138,1,1,9,9.01,encode,57,SPACE,BLUE,1386,TRUE,27234,32,49,BLUE,1417,blacksquare.bmp,484
10/7/2016,15:04,C:\Documents and Settings\lab\Desktop\Tadpole\Stroop Task\stroop 2.csv,138,1,1,10,10.01,encode,57,SPACE,GREEN,1153,TRUE,29184,32,49,GREEN,1184,blacksquare.bmp,484
10/7/2016,15:04,C:\Documents and Settings\lab\Desktop\Tadpole\Stroop Task\stroop 2.csv,138,1,1,11,11.01,encode,57,SPACE,YELLOW,1393,TRUE,30901,32,49,YELLOW,1417,blacksquare.bmp,484
10/7/2016,15:04,C:\Documents and Settings\lab\Desktop\Tadpole\Stroop Task\stroop 2.csv,138,1,1,12,12.01,encode,57,SPACE,END,15057,TRUE,32851,32,49,END,15084,blacksquare.bmp,484
10/7/2016,15:04,C:\Documents and Settings\lab\Desktop\Tadpole\Stroop Task\stroop 2.csv,138,1,1,13,13.01,encode,57,SPACE,press spacebar to start task,1621,TRUE,48468,33,49,press spacebar to start task,1635,,
10/7/2016,15:04,C:\Documents and Settings\lab\Desktop\Tadpole\Stroop Task\stroop 2.csv,138,1,1,14,14.01,encode,57,SPACE,GREEN,1478,TRUE,50152,31,48,GREEN,1500,blacksquare.bmp,101
10/7/2016,15:04,C:\Documents and Settings\lab\Desktop\Tadpole\Stroop Task\stroop 2.csv,138,1,1,15,15.01,encode,57,SPACE,BLUE,1346,TRUE,51801,33,49,BLUE,1367,blacksquare.bmp,101
10/7/2016,15:04,C:\Documents and Settings\lab\Desktop\Tadpole\Stroop Task\stroop 2.csv,138,1,1,16,16.01,encode,57,SPACE,BLUE,1219,TRUE,53318,32,49,BLUE,1250,blacksquare.bmp,101
10/7/2016,15:04,C:\Documents and Settings\lab\Desktop\Tadpole\Stroop Task\stroop 2.csv,138,1,1,17,17.01,encode,57,SPACE,YELLOW,1184,TRUE,54718,33,49,YELLOW,1200,blacksquare.bmp,101
10/7/2016,15:04,C:\Documents and Settings\lab\Desktop\Tadpole\Stroop Task\stroop 2.csv,138,1,1,18,18.01,encode,57,SPACE,BLUE,1135,TRUE,56068,32,49,BLUE,1167,blacksquare.bmp,101
10/7/2016,15:04,C:\Documents and Settings\lab\Desktop\Tadpole\Stroop Task\stroop 2.csv,138,1,1,19,19.01,encode,57,SPACE,BLUE,1120,TRUE,57385,32,48,BLUE,1151,blacksquare.bmp,101
10/7/2016,15:04,C:\Documents and Settings\lab\Desktop\Tadpole\Stroop Task\stroop 2.csv,138,1,1,20,20.01,encode,57,SPACE,RED,1225,TRUE,58685,32,49,RED,1250,blacksquare.bmp,101
10/7/2016,15:04,C:\Documents and Settings\lab\Desktop\Tadpole\Stroop Task\stroop 2.csv,138,1,1,21,21.01,encode,57,SPACE,RED,1335,TRUE,60085,32,48,RED,1351,blacksquare.bmp,101
10/7/2016,15:04,C:\Documents and Settings\lab\Desktop\Tadpole\Stroop Task\stroop 2.csv,138,1,1,22,22.01,encode,57,SPACE,RED,1224,TRUE,61585,32,48,RED,1250,blacksquare.bmp,102
10/7/2016,15:04,C:\Documents and Settings\lab\Desktop\Tadpole\Stroop Task\stroop 2.csv,138,1,1,23,23.01,encode,57,SPACE,RED,1236,TRUE,62985,32,49,RED,1266,blacksquare.bmp,102
10/7/2016,15:04,C:\Documents and Settings\lab\Desktop\Tadpole\Stroop Task\stroop 2.csv,138,1,1,24,24.01,encode,57,SPACE,BLUE,1408,TRUE,64402,32,49,BLUE,1432,blacksquare.bmp,102
10/7/2016,15:04,C:\Documents and Settings\lab\Desktop\Tadpole\Stroop Task\stroop 2.csv,138,1,1,25,25.01,encode,57,SPACE,YELLOW,1255,TRUE,65985,32,49,YELLOW,1283,blacksquare.bmp,102
10/7/2016,15:04,C:\Documents and Settings\lab\Desktop\Tadpole\Stroop Task\stroop 2.csv,138,1,1,26,26.01,encode,57,SPACE,GREEN,1019,TRUE,67419,32,48,GREEN,1050,blacksquare.bmp,102
10/7/2016,15:04,C:\Documents and Settings\lab\Desktop\Tadpole\Stroop Task\stroop 2.csv,138,1,1,27,27.01,encode,57,SPACE,YELLOW,1095,TRUE,68619,32,49,YELLOW,1116,blacksquare.bmp,101
10/7/2016,15:04,C:\Documents and Settings\lab\Desktop\Tadpole\Stroop Task\stroop 2.csv,138,1,1,28,28.01,encode,57,SPACE,BLUE,1003,TRUE,69885,33,49,BLUE,1033,blacksquare.bmp,102
10/7/2016,15:04,C:\Documents and Settings\lab\Desktop\Tadpole\Stroop Task\stroop 2.csv,138,1,1,29,29.01,encode,57,SPACE,YELLOW,1033,TRUE,71069,31,48,YELLOW,1051,blacksquare.bmp,100
10/7/2016,15:04,C:\Documents and Settings\lab\Desktop\Tadpole\Stroop Task\stroop 2.csv,138,1,1,30,30.01,encode,57,SPACE,BLUE,1070,TRUE,72268,32,49,BLUE,1101,blacksquare.bmp,100
10/7/2016,15:04,C:\Documents and Settings\lab\Desktop\Tadpole\Stroop Task\stroop 2.csv,138,1,1,31,31.01,encode,57,SPACE,GREEN,1082,TRUE,73518,32,49,GREEN,1101,blacksquare.bmp,100
10/7/2016,15:04,C:\Documents and Settings\lab\Desktop\Tadpole\Stroop Task\stroop 2.csv,138,1,1,32,32.01,encode,57,SPACE,RED,1045,TRUE,74768,32,49,RED,1067,blacksquare.bmp,101
10/7/2016,15:04,C:\Documents and Settings\lab\Desktop\Tadpole\Stroop Task\stroop 2.csv,138,1,1,33,33.01,encode,57,SPACE,YELLOW,1090,TRUE,75985,32,49,YELLOW,1117,blacksquare.bmp,101
10/7/2016,15:04,C:\Documents and Settings\lab\Desktop\Tadpole\Stroop Task\stroop 2.csv,138,1,1,34,34.01,encode,57,SPACE,RED,957,TRUE,77252,32,48,RED,984,blacksquare.bmp,101
10/7/2016,15:04,C:\Documents and Settings\lab\Desktop\Tadpole\Stroop Task\stroop 2.csv,138,1,1,35,35.01,encode,57,SPACE,YELLOW,1188,TRUE,78385,33,49,YELLOW,1217,blacksquare.bmp,101
10/7/2016,15:04,C:\Documents and Settings\lab\Desktop\Tadpole\Stroop Task\stroop 2.csv,138,1,1,36,36.01,encode,57,SPACE,BLUE,1036,TRUE,79752,32,48,BLUE,1068,blacksquare.bmp,100
10/7/2016,15:04,C:\Documents and Settings\lab\Desktop\Tadpole\Stroop Task\stroop 2.csv,138,1,1,37,37.01,encode,57,SPACE,BLUE,1424,TRUE,80968,33,49,BLUE,1450,blacksquare.bmp,102
10/7/2016,15:04,C:\Documents and Settings\lab\Desktop\Tadpole\Stroop Task\stroop 2.csv,138,1,1,38,38.01,encode,57,SPACE,YELLOW,1188,TRUE,82569,32,49,YELLOW,1217,blacksquare.bmp,100
10/7/2016,15:04,C:\Documents and Settings\lab\Desktop\Tadpole\Stroop Task\stroop 2.csv,138,1,1,39,39.01,encode,57,SPACE,YELLOW,1491,TRUE,83935,32,49,YELLOW,1517,blacksquare.bmp,101
10/7/2016,15:04,C:\Documents and Settings\lab\Desktop\Tadpole\Stroop Task\stroop 2.csv,138,1,1,40,40.01,encode,57,SPACE,GREEN,1037,TRUE,85602,32,49,GREEN,1066,blacksquare.bmp,102
10/7/2016,15:04,C:\Documents and Settings\lab\Desktop\Tadpole\Stroop Task\stroop 2.csv,138,1,1,41,41.01,encode,57,SPACE,YELLOW,1074,TRUE,86819,32,49,YELLOW,1099,blacksquare.bmp,102
10/7/2016,15:04,C:\Documents and Settings\lab\Desktop\Tadpole\Stroop Task\stroop 2.csv,138,1,1,42,42.01,encode,57,SPACE,BLUE,1213,TRUE,88069,32,49,BLUE,1233,blacksquare.bmp,101
10/7/2016,15:04,C:\Documents and Settings\lab\Desktop\Tadpole\Stroop Task\stroop 2.csv,138,1,1,43,43.01,encode,57,SPACE,GREEN,1099,TRUE,89452,32,49,GREEN,1117,blacksquare.bmp,100
10/7/2016,15:04,C:\Documents and Settings\lab\Desktop\Tadpole\Stroop Task\stroop 2.csv,138,1,1,44,44.01,encode,57,SPACE,RED,1038,TRUE,90718,33,49,RED,1068,blacksquare.bmp,100
10/7/2016,15:04,C:\Documents and Settings\lab\Desktop\Tadpole\Stroop Task\stroop 2.csv,138,1,1,45,45.01,encode,57,SPACE,GREEN,947,TRUE,91935,32,49,GREEN,967,blacksquare.bmp,101
10/7/2016,15:04,C:\Documents and Settings\lab\Desktop\Tadpole\Stroop Task\stroop 2.csv,138,1,1,46,46.01,encode,57,SPACE,YELLOW,987,TRUE,93052,33,49,YELLOW,1017,blacksquare.bmp,101
10/7/2016,15:04,C:\Documents and Settings\lab\Desktop\Tadpole\Stroop Task\stroop 2.csv,138,1,1,47,47.01,encode,57,SPACE,RED,946,TRUE,94219,32,48,RED,967,blacksquare.bmp,102
10/7/2016,15:04,C:\Documents and Settings\lab\Desktop\Tadpole\Stroop Task\stroop 2.csv,138,1,1,48,48.01,encode,57,SPACE,GREEN,963,TRUE,95336,32,48,GREEN,984,blacksquare.bmp,101
10/7/2016,15:04,C:\Documents and Settings\lab\Desktop\Tadpole\Stroop Task\stroop 2.csv,138,1,1,49,49.01,encode,57,SPACE,YELLOW,962,TRUE,96469,32,49,YELLOW,983,blacksquare.bmp,101
10/7/2016,15:04,C:\Documents and Settings\lab\Desktop\Tadpole\Stroop Task\stroop 2.csv,138,1,1,50,50.01,encode,57,SPACE,RED,947,TRUE,97602,32,49,RED,967,blacksquare.bmp,101
10/7/2016,15:04,C:\Documents and Settings\lab\Desktop\Tadpole\Stroop Task\stroop 2.csv,138,1,1,51,51.01,encode,57,SPACE,YELLOW,1268,TRUE,98719,32,49,YELLOW,1283,blacksquare.bmp,101
10/7/2016,15:04,C:\Documents and Settings\lab\Desktop\Tadpole\Stroop Task\stroop 2.csv,138,1,1,52,52.01,encode,57,SPACE,GREEN,1095,TRUE,100152,32,49,GREEN,1117,blacksquare.bmp,101
10/7/2016,15:04,C:\Documents and Settings\lab\Desktop\Tadpole\Stroop Task\stroop 2.csv,138,1,1,53,53.01,encode,57,SPACE,RED,1626,TRUE,101419,32,48,RED,1651,blacksquare.bmp,101
10/7/2016,15:04,C:\Documents and Settings\lab\Desktop\Tadpole\Stroop Task\stroop 2.csv,138,1,1,54,54.01,encode,57,SPACE,RED,1223,TRUE,103219,33,49,RED,1250,blacksquare.bmp,101
10/7/2016,15:04,C:\Documents and Settings\lab\Desktop\Tadpole\Stroop Task\stroop 2.csv,138,1,1,55,55.01,encode,57,SPACE,GREEN,997,TRUE,104619,32,49,GREEN,1016,blacksquare.bmp,102
10/7/2016,15:04,C:\Documents and Settings\lab\Desktop\Tadpole\Stroop Task\stroop 2.csv,138,1,1,56,56.01,encode,57,SPACE,BLUE,1106,TRUE,105786,32,49,BLUE,1133,blacksquare.bmp,101
10/7/2016,15:04,C:\Documents and Settings\lab\Desktop\Tadpole\Stroop Task\stroop 2.csv,138,1,1,57,57.01,encode,57,SPACE,RED,1085,TRUE,107069,32,49,RED,1117,blacksquare.bmp,101
10/7/2016,15:04,C:\Documents and Settings\lab\Desktop\Tadpole\Stroop Task\stroop 2.csv,138,1,1,58,58.01,encode,57,SPACE,GREEN,968,TRUE,108336,32,48,GREEN,984,blacksquare.bmp,101
10/7/2016,15:04,C:\Documents and Settings\lab\Desktop\Tadpole\Stroop Task\stroop 2.csv,138,1,1,59,59.01,encode,57,SPACE,RED,1215,TRUE,109469,33,49,RED,1234,blacksquare.bmp,100
10/7/2016,15:04,C:\Documents and Settings\lab\Desktop\Tadpole\Stroop Task\stroop 2.csv,138,1,1,60,60.01,encode,57,SPACE,YELLOW,1157,TRUE,110852,32,49,YELLOW,1184,blacksquare.bmp,101
10/7/2016,15:04,C:\Documents and Settings\lab\Desktop\Tadpole\Stroop Task\stroop 2.csv,138,1,1,61,61.01,encode,57,SPACE,YELLOW,1037,TRUE,112186,32,49,YELLOW,1066,blacksquare.bmp,102
10/7/2016,15:04,C:\Documents and Settings\lab\Desktop\Tadpole\Stroop Task\stroop 2.csv,138,1,1,62,62.01,encode,57,SPACE,GREEN,977,TRUE,113403,31,49,GREEN,1000,blacksquare.bmp,100
10/7/2016,15:04,C:\Documents and Settings\lab\Desktop\Tadpole\Stroop Task\stroop 2.csv,138,1,1,63,63.01,encode,57,SPACE,YELLOW,1018,TRUE,114552,33,49,YELLOW,1033,blacksquare.bmp,102
10/7/2016,15:04,C:\Documents and Settings\lab\Desktop\Tadpole\Stroop Task\stroop 2.csv,138,1,1,64,64.01,encode,57,SPACE,GREEN,975,TRUE,115736,32,49,GREEN,1000,blacksquare.bmp,101
10/7/2016,15:04,C:\Documents and Settings\lab\Desktop\Tadpole\Stroop Task\stroop 2.csv,138,1,1,65,65.01,encode,57,SPACE,YELLOW,1063,TRUE,116886,32,49,YELLOW,1083,blacksquare.bmp,102
10/7/2016,15:04,C:\Documents and Settings\lab\Desktop\Tadpole\Stroop Task\stroop 2.csv,138,1,1,66,66.01,encode,57,SPACE,GREEN,874,TRUE,118120,31,49,GREEN,899,blacksquare.bmp,101
10/7/2016,15:04,C:\Documents and Settings\lab\Desktop\Tadpole\Stroop Task\stroop 2.csv,138,1,1,67,67.01,encode,57,SPACE,BLUE,1062,TRUE,119169,33,49,BLUE,1083,blacksquare.bmp,102
10/7/2016,15:04,C:\Documents and Settings\lab\Desktop\Tadpole\Stroop Task\stroop 2.csv,138,1,1,68,68.01,encode,57,SPACE,GREEN,1249,TRUE,120403,32,49,GREEN,1266,blacksquare.bmp,101
10/7/2016,15:04,C:\Documents and Settings\lab\Desktop\Tadpole\Stroop Task\stroop 2.csv,138,1,1,69,69.01,encode,57,SPACE,GREEN,1023,TRUE,121819,32,49,GREEN,1051,blacksquare.bmp,100
10/7/2016,15:04,C:\Documents and Settings\lab\Desktop\Tadpole\Stroop Task\stroop 2.csv,138,1,1,70,70.01,encode,57,SPACE,YELLOW,988,TRUE,123019,32,49,YELLOW,1017,blacksquare.bmp,101
10/7/2016,15:04,C:\Documents and Settings\lab\Desktop\Tadpole\Stroop Task\stroop 2.csv,138,1,1,71,71.01,encode,57,SPACE,RED,1026,TRUE,124186,32,49,RED,1050,blacksquare.bmp,101
10/7/2016,15:04,C:\Documents and Settings\lab\Desktop\Tadpole\Stroop Task\stroop 2.csv,138,1,1,72,72.01,encode,57,SPACE,YELLOW,920,TRUE,125386,33,49,YELLOW,950,blacksquare.bmp,101
10/7/2016,15:04,C:\Documents and Settings\lab\Desktop\Tadpole\Stroop Task\stroop 2.csv,138,1,1,73,73.01,encode,57,SPACE,GREEN,1041,TRUE,126486,32,49,GREEN,1066,blacksquare.bmp,102
10/7/2016,15:04,C:\Documents and Settings\lab\Desktop\Tadpole\Stroop Task\stroop 2.csv,138,1,1,74,74.01,encode,57,SPACE,YELLOW,1101,TRUE,127703,32,49,YELLOW,1133,blacksquare.bmp,101
10/7/2016,15:04,C:\Documents and Settings\lab\Desktop\Tadpole\Stroop Task\stroop 2.csv,138,1,1,75,75.01,encode,57,SPACE,BLUE,1080,TRUE,128986,32,49,BLUE,1100,blacksquare.bmp,101
10/7/2016,15:04,C:\Documents and Settings\lab\Desktop\Tadpole\Stroop Task\stroop 2.csv,138,1,1,76,76.01,encode,57,SPACE,BLUE,1059,TRUE,130236,32,49,BLUE,1084,blacksquare.bmp,100
10/7/2016,15:04,C:\Documents and Settings\lab\Desktop\Tadpole\Stroop Task\stroop 2.csv,138,1,1,77,77.01,encode,57,SPACE,GREEN,968,TRUE,131469,33,49,GREEN,984,blacksquare.bmp,101
10/7/2016,15:04,C:\Documents and Settings\lab\Desktop\Tadpole\Stroop Task\stroop 2.csv,138,1,1,78,78.01,encode,57,SPACE,RED,1183,TRUE,132603,32,49,RED,1199,blacksquare.bmp,102
10/7/2016,15:04,C:\Documents and Settings\lab\Desktop\Tadpole\Stroop Task\stroop 2.csv,138,1,1,79,79.01,encode,57,SPACE,YELLOW,950,TRUE,133953,32,49,YELLOW,966,blacksquare.bmp,102
10/7/2016,15:04,C:\Documents and Settings\lab\Desktop\Tadpole\Stroop Task\stroop 2.csv,138,1,1,80,80.01,encode,57,SPACE,BLUE,934,TRUE,135070,32,49,BLUE,966,blacksquare.bmp,101
10/7/2016,15:04,C:\Documents and Settings\lab\Desktop\Tadpole\Stroop Task\stroop 2.csv,138,1,1,81,81.01,encode,57,SPACE,RED,1088,TRUE,136186,32,49,RED,1117,blacksquare.bmp,101
10/7/2016,15:04,C:\Documents and Settings\lab\Desktop\Tadpole\Stroop Task\stroop 2.csv,138,1,1,82,82.01,encode,57,SPACE,RED,1194,TRUE,137453,32,49,RED,1216,blacksquare.bmp,102
10/7/2016,15:04,C:\Documents and Settings\lab\Desktop\Tadpole\Stroop Task\stroop 2.csv,138,1,1,83,83.01,encode,57,SPACE,BLUE,1144,TRUE,138820,32,49,BLUE,1166,blacksquare.bmp,101
10/7/2016,15:04,C:\Documents and Settings\lab\Desktop\Tadpole\Stroop Task\stroop 2.csv,138,1,1,84,84.01,encode,57,SPACE,GREEN,1138,TRUE,140136,33,49,GREEN,1167,blacksquare.bmp,101
10/7/2016,15:04,C:\Documents and Settings\lab\Desktop\Tadpole\Stroop Task\stroop 2.csv,138,1,1,85,85.01,encode,57,SPACE,BLUE,1314,TRUE,141453,32,49,BLUE,1334,blacksquare.bmp,100
10/7/2016,15:04,C:\Documents and Settings\lab\Desktop\Tadpole\Stroop Task\stroop 2.csv,138,1,1,86,86.01,encode,57,SPACE,RED,1092,TRUE,142936,32,49,RED,1117,blacksquare.bmp,101
10/7/2016,15:04,C:\Documents and Settings\lab\Desktop\Tadpole\Stroop Task\stroop 2.csv,138,1,1,87,87.01,encode,57,SPACE,BLUE,1039,TRUE,144203,32,49,BLUE,1067,blacksquare.bmp,100
10/7/2016,15:04,C:\Documents and Settings\lab\Desktop\Tadpole\Stroop Task\stroop 2.csv,138,1,1,88,88.01,encode,57,SPACE,BLUE,1020,TRUE,145419,33,49,BLUE,1050,blacksquare.bmp,102
10/7/2016,15:04,C:\Documents and Settings\lab\Desktop\Tadpole\Stroop Task\stroop 2.csv,138,1,1,89,89.01,encode,57,SPACE,BLUE,1088,TRUE,146620,32,49,BLUE,1116,blacksquare.bmp,101
10/7/2016,15:04,C:\Documents and Settings\lab\Desktop\Tadpole\Stroop Task\stroop 2.csv,138,1,1,90,90.01,encode,57,SPACE,RED,1443,TRUE,147886,33,49,RED,1467,blacksquare.bmp,101
10/7/2016,15:04,C:\Documents and Settings\lab\Desktop\Tadpole\Stroop Task\stroop 2.csv,138,1,1,91,91.01,encode,57,SPACE,RED,1104,TRUE,149503,33,49,RED,1133,blacksquare.bmp,102
10/7/2016,15:04,C:\Documents and Settings\lab\Desktop\Tadpole\Stroop Task\stroop 2.csv,138,1,1,92,92.01,encode,57,SPACE,YELLOW,1193,TRUE,150787,32,49,YELLOW,1216,blacksquare.bmp,101
10/7/2016,15:04,C:\Documents and Settings\lab\Desktop\Tadpole\Stroop Task\stroop 2.csv,138,1,1,93,93.01,encode,57,SPACE,RED,1128,TRUE,152153,32,49,RED,1150,blacksquare.bmp,101
10/7/2016,15:04,C:\Documents and Settings\lab\Desktop\Tadpole\Stroop Task\stroop 2.csv,138,1,1,94,94.01,encode,57,SPACE,GREEN,1025,TRUE,153453,32,49,GREEN,1050,blacksquare.bmp,101
10/7/2016,15:04,C:\Documents and Settings\lab\Desktop\Tadpole\Stroop Task\stroop 2.csv,138,1,1,95,95.01,encode,57,SPACE,RED,943,TRUE,154653,32,49,RED,967,blacksquare.bmp,101
10/7/2016,15:04,C:\Documents and Settings\lab\Desktop\Tadpole\Stroop Task\stroop 2.csv,138,1,1,96,96.01,encode,57,SPACE,GREEN,943,TRUE,155770,32,49,GREEN,967,blacksquare.bmp,100
10/7/2016,15:04,C:\Documents and Settings\lab\Desktop\Tadpole\Stroop Task\stroop 2.csv,138,1,1,97,97.01,encode,57,SPACE,YELLOW,968,TRUE,156886,33,49,YELLOW,1000,blacksquare.bmp,102
10/7/2016,15:04,C:\Documents and Settings\lab\Desktop\Tadpole\Stroop Task\stroop 2.csv,138,1,1,98,98.01,encode,57,SPACE,BLUE,918,TRUE,158037,32,49,BLUE,950,blacksquare.bmp,100
10/7/2016,15:04,C:\Documents and Settings\lab\Desktop\Tadpole\Stroop Task\stroop 2.csv,138,1,1,99,99.01,encode,57,SPACE,BLUE,985,TRUE,159136,33,49,BLUE,1017,blacksquare.bmp,101
10/7/2016,15:04,C:\Documents and Settings\lab\Desktop\Tadpole\Stroop Task\stroop 2.csv,138,1,1,100,100.01,encode,57,SPACE,GREEN,960,TRUE,160303,33,49,GREEN,984,blacksquare.bmp,101
10/7/2016,15:04,C:\Documents and Settings\lab\Desktop\Tadpole\Stroop Task\stroop 2.csv,138,1,1,101,101.01,encode,57,SPACE,GREEN,1071,TRUE,161437,31,49,GREEN,1100,blacksquare.bmp,101
10/7/2016,15:04,C:\Documents and Settings\lab\Desktop\Tadpole\Stroop Task\stroop 2.csv,138,1,1,102,102.01,encode,57,SPACE,YELLOW,946,TRUE,162687,31,49,YELLOW,966,blacksquare.bmp,101
10/7/2016,15:04,C:\Documents and Settings\lab\Desktop\Tadpole\Stroop Task\stroop 2.csv,138,1,1,103,103.01,encode,57,SPACE,RED,819,TRUE,163803,33,49,RED,850,blacksquare.bmp,101
10/7/2016,15:04,C:\Documents and Settings\lab\Desktop\Tadpole\Stroop Task\stroop 2.csv,138,1,1,104,104.01,encode,57,SPACE,YELLOW,993,TRUE,164803,33,49,YELLOW,1017,blacksquare.bmp,101
10/7/2016,15:04,C:\Documents and Settings\lab\Desktop\Tadpole\Stroop Task\stroop 2.csv,138,1,1,105,105.01,encode,57,SPACE,RED,1176,TRUE,165970,32,49,RED,1200,blacksquare.bmp,101
10/7/2016,15:04,C:\Documents and Settings\lab\Desktop\Tadpole\Stroop Task\stroop 2.csv,138,1,1,106,106.01,encode,57,SPACE,YELLOW,975,TRUE,167320,32,49,YELLOW,1000,blacksquare.bmp,101
10/7/2016,15:04,C:\Documents and Settings\lab\Desktop\Tadpole\Stroop Task\stroop 2.csv,138,1,1,107,107.01,encode,57,SPACE,GREEN,1405,TRUE,168470,32,49,GREEN,1434,blacksquare.bmp,100
10/7/2016,15:04,C:\Documents and Settings\lab\Desktop\Tadpole\Stroop Task\stroop 2.csv,138,1,1,108,108.01,encode,57,SPACE,RED,1060,TRUE,170053,33,49,RED,1083,blacksquare.bmp,102
10/7/2016,15:04,C:\Documents and Settings\lab\Desktop\Tadpole\Stroop Task\stroop 2.csv,138,1,1,109,109.01,encode,57,SPACE,YELLOW,992,TRUE,171287,32,49,YELLOW,1016,blacksquare.bmp,102
10/7/2016,15:04,C:\Documents and Settings\lab\Desktop\Tadpole\Stroop Task\stroop 2.csv,138,1,1,110,110.01,encode,57,SPACE,BLUE,1071,TRUE,172454,32,48,BLUE,1100,blacksquare.bmp,102
10/7/2016,15:04,C:\Documents and Settings\lab\Desktop\Tadpole\Stroop Task\stroop 2.csv,138,1,1,111,111.01,encode,57,SPACE,GREEN,1186,TRUE,173704,32,48,GREEN,1217,blacksquare.bmp,101
10/7/2016,15:04,C:\Documents and Settings\lab\Desktop\Tadpole\Stroop Task\stroop 2.csv,138,1,1,112,112.01,encode,57,SPACE,BLUE,833,TRUE,175070,32,49,BLUE,850,blacksquare.bmp,101
10/7/2016,15:04,C:\Documents and Settings\lab\Desktop\Tadpole\Stroop Task\stroop 2.csv,138,1,1,113,113.01,encode,57,SPACE,RED,1326,TRUE,176070,32,49,RED,1350,blacksquare.bmp,101
10/7/2016,15:04,C:\Documents and Settings\lab\Desktop\Tadpole\Stroop Task\stroop 2.csv,138,1,1,114,114.01,encode,57,SPACE,END,2822,TRUE,177570,32,49,END,2850,blacksquare.bmp,101
