Date,Time,File,Subj,Cond,Block,Trial,Order,task,Resp,Name,Stim,RT,Correct,Started@,LoadTime,TotalInt,Stim 1,Time 1,Stim 2,Time 2,
2/22/2017,16:25,C:\Documents and Settings\lab\Desktop\Tadpole\Stroop Task\stroop 2.csv,168,1,1,1,1.01,encode,57,SPACE,"press spacebar to start practice",24218,True,0,66,83,"press spacebar to start practice",24219,
2/22/2017,16:25,C:\Documents and Settings\lab\Desktop\Tadpole\Stroop Task\stroop 2.csv,168,1,1,2,2.01,encode,57,SPACE,"YELLOW",1829,True,24302,65,82,"YELLOW",1849,"blacksquare.bmp",485,
2/22/2017,16:25,C:\Documents and Settings\lab\Desktop\Tadpole\Stroop Task\stroop 2.csv,168,1,1,3,3.01,encode,57,SPACE,"BLUE",1495,True,26718,32,48,"BLUE",1517,"blacksquare.bmp",485,
2/22/2017,16:25,C:\Documents and Settings\lab\Desktop\Tadpole\Stroop Task\stroop 2.csv,168,1,1,4,4.01,encode,57,SPACE,"RED",1251,True,28768,33,49,"RED",1283,"blacksquare.bmp",485,
2/22/2017,16:25,C:\Documents and Settings\lab\Desktop\Tadpole\Stroop Task\stroop 2.csv,168,1,1,5,5.01,encode,57,SPACE,"GREEN",1371,True,30585,32,49,"GREEN",1400,"blacksquare.bmp",501,
2/22/2017,16:25,C:\Documents and Settings\lab\Desktop\Tadpole\Stroop Task\stroop 2.csv,168,1,1,6,6.01,encode,57,SPACE,"RED",1356,True,32535,32,49,"RED",1383,"blacksquare.bmp",485,
2/22/2017,16:25,C:\Documents and Settings\lab\Desktop\Tadpole\Stroop Task\stroop 2.csv,168,1,1,7,7.01,encode,57,SPACE,"BLUE",1456,True,34452,31,48,"BLUE",1483,"blacksquare.bmp",486,
2/22/2017,16:25,C:\Documents and Settings\lab\Desktop\Tadpole\Stroop Task\stroop 2.csv,168,1,1,8,8.01,encode,57,SPACE,"GREEN",1696,True,36469,32,48,"GREEN",1716,"blacksquare.bmp",486,
2/22/2017,16:25,C:\Documents and Settings\lab\Desktop\Tadpole\Stroop Task\stroop 2.csv,168,1,1,9,9.01,encode,57,SPACE,"BLUE",1301,True,38719,32,48,"BLUE",1317,"blacksquare.bmp",484,
2/22/2017,16:25,C:\Documents and Settings\lab\Desktop\Tadpole\Stroop Task\stroop 2.csv,168,1,1,10,10.01,encode,57,SPACE,"GREEN",1355,True,40568,32,49,"GREEN",1384,"blacksquare.bmp",501,
2/22/2017,16:25,C:\Documents and Settings\lab\Desktop\Tadpole\Stroop Task\stroop 2.csv,168,1,1,11,11.01,encode,57,SPACE,"YELLOW",1300,True,42502,32,49,"YELLOW",1316,"blacksquare.bmp",484,
2/22/2017,16:25,C:\Documents and Settings\lab\Desktop\Tadpole\Stroop Task\stroop 2.csv,168,1,1,12,12.01,encode,57,SPACE,"END",3021,True,44351,33,49,"END",3051,"blacksquare.bmp",501,
2/22/2017,16:25,C:\Documents and Settings\lab\Desktop\Tadpole\Stroop Task\stroop 2.csv,168,1,1,13,13.01,encode,57,SPACE,"press spacebar to start task",5992,True,47952,32,49,"press spacebar to start task",6001,
2/22/2017,16:25,C:\Documents and Settings\lab\Desktop\Tadpole\Stroop Task\stroop 2.csv,168,1,1,14,14.01,encode,57,SPACE,"GREEN",1694,True,54002,32,49,"GREEN",1716,"blacksquare.bmp",102,
2/22/2017,16:25,C:\Documents and Settings\lab\Desktop\Tadpole\Stroop Task\stroop 2.csv,168,1,1,15,15.01,encode,57,SPACE,"BLUE",1170,True,55869,32,49,"BLUE",1200,"blacksquare.bmp",101,
2/22/2017,16:25,C:\Documents and Settings\lab\Desktop\Tadpole\Stroop Task\stroop 2.csv,168,1,1,16,16.01,encode,57,SPACE,"BLUE",1300,True,57219,32,48,"BLUE",1317,"blacksquare.bmp",101,
2/22/2017,16:25,C:\Documents and Settings\lab\Desktop\Tadpole\Stroop Task\stroop 2.csv,168,1,1,17,17.01,encode,57,SPACE,"YELLOW",1481,True,58685,33,49,"YELLOW",1500,"blacksquare.bmp",102,
2/22/2017,16:25,C:\Documents and Settings\lab\Desktop\Tadpole\Stroop Task\stroop 2.csv,168,1,1,18,18.01,encode,57,SPACE,"BLUE",1662,True,60336,32,49,"BLUE",1682,"blacksquare.bmp",102,
2/22/2017,16:25,C:\Documents and Settings\lab\Desktop\Tadpole\Stroop Task\stroop 2.csv,168,1,1,19,19.01,encode,57,SPACE,"BLUE",1200,True,62169,32,49,"BLUE",1216,"blacksquare.bmp",102,
2/22/2017,16:25,C:\Documents and Settings\lab\Desktop\Tadpole\Stroop Task\stroop 2.csv,168,1,1,20,20.01,encode,57,SPACE,"RED",1133,True,63536,32,49,"RED",1149,"blacksquare.bmp",102,
2/22/2017,16:25,C:\Documents and Settings\lab\Desktop\Tadpole\Stroop Task\stroop 2.csv,168,1,1,21,21.01,encode,57,SPACE,"RED",1175,True,64836,32,49,"RED",1200,"blacksquare.bmp",100,
2/22/2017,16:25,C:\Documents and Settings\lab\Desktop\Tadpole\Stroop Task\stroop 2.csv,168,1,1,22,22.01,encode,57,SPACE,"RED",1130,True,66185,33,49,"RED",1151,"blacksquare.bmp",101,
2/22/2017,16:25,C:\Documents and Settings\lab\Desktop\Tadpole\Stroop Task\stroop 2.csv,168,1,1,23,23.01,encode,57,SPACE,"RED",1244,True,67486,31,49,"RED",1267,"blacksquare.bmp",100,
2/22/2017,16:25,C:\Documents and Settings\lab\Desktop\Tadpole\Stroop Task\stroop 2.csv,168,1,1,24,24.01,encode,57,SPACE,"BLUE",1228,True,68902,32,49,"BLUE",1250,"blacksquare.bmp",102,
2/22/2017,16:25,C:\Documents and Settings\lab\Desktop\Tadpole\Stroop Task\stroop 2.csv,168,1,1,25,25.01,encode,57,SPACE,"YELLOW",1067,True,70303,32,48,"YELLOW",1083,"blacksquare.bmp",102,
2/22/2017,16:25,C:\Documents and Settings\lab\Desktop\Tadpole\Stroop Task\stroop 2.csv,168,1,1,26,26.01,encode,57,SPACE,"GREEN",1088,True,71536,32,49,"GREEN",1116,"blacksquare.bmp",102,
2/22/2017,16:25,C:\Documents and Settings\lab\Desktop\Tadpole\Stroop Task\stroop 2.csv,168,1,1,27,27.01,encode,57,SPACE,"YELLOW",1125,True,72803,32,48,"YELLOW",1151,"blacksquare.bmp",100,
2/22/2017,16:25,C:\Documents and Settings\lab\Desktop\Tadpole\Stroop Task\stroop 2.csv,168,1,1,28,28.01,encode,57,SPACE,"BLUE",1064,True,74102,33,49,"BLUE",1084,"blacksquare.bmp",101,
2/22/2017,16:25,C:\Documents and Settings\lab\Desktop\Tadpole\Stroop Task\stroop 2.csv,168,1,1,29,29.01,encode,57,SPACE,"YELLOW",1118,True,75336,32,49,"YELLOW",1133,"blacksquare.bmp",101,
2/22/2017,16:25,C:\Documents and Settings\lab\Desktop\Tadpole\Stroop Task\stroop 2.csv,168,1,1,30,30.01,encode,57,SPACE,"BLUE",1306,True,76619,32,49,"BLUE",1334,"blacksquare.bmp",100,
2/22/2017,16:25,C:\Documents and Settings\lab\Desktop\Tadpole\Stroop Task\stroop 2.csv,168,1,1,31,31.01,encode,57,SPACE,"GREEN",1166,True,78102,33,49,"GREEN",1184,"blacksquare.bmp",101,
2/22/2017,16:25,C:\Documents and Settings\lab\Desktop\Tadpole\Stroop Task\stroop 2.csv,168,1,1,32,32.01,encode,57,SPACE,"RED",1079,True,79436,33,49,"RED",1100,"blacksquare.bmp",101,
2/22/2017,16:25,C:\Documents and Settings\lab\Desktop\Tadpole\Stroop Task\stroop 2.csv,168,1,1,33,33.01,encode,57,SPACE,"YELLOW",1220,True,80686,33,49,"YELLOW",1250,"blacksquare.bmp",101,
2/22/2017,16:25,C:\Documents and Settings\lab\Desktop\Tadpole\Stroop Task\stroop 2.csv,168,1,1,34,34.01,encode,57,SPACE,"RED",1339,True,82086,32,49,"RED",1367,"blacksquare.bmp",100,
2/22/2017,16:25,C:\Documents and Settings\lab\Desktop\Tadpole\Stroop Task\stroop 2.csv,168,1,1,35,35.01,encode,57,SPACE,"YELLOW",1199,True,83602,33,49,"YELLOW",1217,"blacksquare.bmp",102,
2/22/2017,16:25,C:\Documents and Settings\lab\Desktop\Tadpole\Stroop Task\stroop 2.csv,168,1,1,36,36.01,encode,57,SPACE,"BLUE",1023,True,84970,32,48,"BLUE",1050,"blacksquare.bmp",102,
2/22/2017,16:25,C:\Documents and Settings\lab\Desktop\Tadpole\Stroop Task\stroop 2.csv,168,1,1,37,37.01,encode,57,SPACE,"BLUE",1310,True,86170,32,49,"BLUE",1333,"blacksquare.bmp",101,
2/22/2017,16:25,C:\Documents and Settings\lab\Desktop\Tadpole\Stroop Task\stroop 2.csv,168,1,1,38,38.01,encode,57,SPACE,"YELLOW",1098,True,87653,32,49,"YELLOW",1116,"blacksquare.bmp",102,
2/22/2017,16:25,C:\Documents and Settings\lab\Desktop\Tadpole\Stroop Task\stroop 2.csv,168,1,1,39,39.01,encode,57,SPACE,"YELLOW",1422,True,88920,32,49,"YELLOW",1450,"blacksquare.bmp",100,
2/22/2017,16:25,C:\Documents and Settings\lab\Desktop\Tadpole\Stroop Task\stroop 2.csv,168,1,1,40,40.01,encode,57,SPACE,"GREEN",1055,True,90519,33,49,"GREEN",1084,"blacksquare.bmp",101,
2/22/2017,16:25,C:\Documents and Settings\lab\Desktop\Tadpole\Stroop Task\stroop 2.csv,168,1,1,41,41.01,encode,57,SPACE,"YELLOW",1284,True,91753,32,49,"YELLOW",1299,"blacksquare.bmp",102,
2/22/2017,16:25,C:\Documents and Settings\lab\Desktop\Tadpole\Stroop Task\stroop 2.csv,168,1,1,42,42.01,encode,57,SPACE,"BLUE",1225,True,93203,32,49,"BLUE",1250,"blacksquare.bmp",101,
2/22/2017,16:25,C:\Documents and Settings\lab\Desktop\Tadpole\Stroop Task\stroop 2.csv,168,1,1,43,43.01,encode,57,SPACE,"GREEN",1080,True,94603,33,49,"GREEN",1100,"blacksquare.bmp",101,
2/22/2017,16:25,C:\Documents and Settings\lab\Desktop\Tadpole\Stroop Task\stroop 2.csv,168,1,1,44,44.01,encode,57,SPACE,"RED",1045,True,95853,33,49,"RED",1067,"blacksquare.bmp",101,
2/22/2017,16:25,C:\Documents and Settings\lab\Desktop\Tadpole\Stroop Task\stroop 2.csv,168,1,1,45,45.01,encode,57,SPACE,"GREEN",1027,True,97070,32,49,"GREEN",1050,"blacksquare.bmp",101,
2/22/2017,16:25,C:\Documents and Settings\lab\Desktop\Tadpole\Stroop Task\stroop 2.csv,168,1,1,46,46.01,encode,57,SPACE,"YELLOW",995,True,98270,32,48,"YELLOW",1018,"blacksquare.bmp",100,
2/22/2017,16:25,C:\Documents and Settings\lab\Desktop\Tadpole\Stroop Task\stroop 2.csv,168,1,1,47,47.01,encode,57,SPACE,"RED",907,True,99436,33,49,"RED",934,"blacksquare.bmp",101,
2/22/2017,16:25,C:\Documents and Settings\lab\Desktop\Tadpole\Stroop Task\stroop 2.csv,168,1,1,48,48.01,encode,57,SPACE,"GREEN",1175,True,100520,32,49,"GREEN",1199,"blacksquare.bmp",102,
2/22/2017,16:25,C:\Documents and Settings\lab\Desktop\Tadpole\Stroop Task\stroop 2.csv,168,1,1,49,49.01,encode,57,SPACE,"YELLOW",872,True,101870,32,49,"YELLOW",900,"blacksquare.bmp",101,
2/22/2017,16:25,C:\Documents and Settings\lab\Desktop\Tadpole\Stroop Task\stroop 2.csv,168,1,1,50,50.01,encode,57,SPACE,"RED",989,True,102920,32,49,"RED",1016,"blacksquare.bmp",102,
2/22/2017,16:25,C:\Documents and Settings\lab\Desktop\Tadpole\Stroop Task\stroop 2.csv,168,1,1,51,51.01,encode,57,SPACE,"YELLOW",1294,True,104087,32,49,"YELLOW",1316,"blacksquare.bmp",102,
2/22/2017,16:25,C:\Documents and Settings\lab\Desktop\Tadpole\Stroop Task\stroop 2.csv,168,1,1,52,52.01,encode,57,SPACE,"GREEN",1155,True,105554,32,48,"GREEN",1184,"blacksquare.bmp",101,
2/22/2017,16:25,C:\Documents and Settings\lab\Desktop\Tadpole\Stroop Task\stroop 2.csv,168,1,1,53,53.01,encode,57,SPACE,"RED",956,True,106887,32,48,"RED",984,"blacksquare.bmp",101,
2/22/2017,16:25,C:\Documents and Settings\lab\Desktop\Tadpole\Stroop Task\stroop 2.csv,168,1,1,54,54.01,encode,57,SPACE,"RED",1094,True,108020,33,49,"RED",1116,"blacksquare.bmp",102,
2/22/2017,16:25,C:\Documents and Settings\lab\Desktop\Tadpole\Stroop Task\stroop 2.csv,168,1,1,55,55.01,encode,57,SPACE,"GREEN",929,True,109287,32,49,"GREEN",950,"blacksquare.bmp",101,
2/22/2017,16:25,C:\Documents and Settings\lab\Desktop\Tadpole\Stroop Task\stroop 2.csv,168,1,1,56,56.01,encode,57,SPACE,"BLUE",1102,True,110387,32,48,"BLUE",1134,"blacksquare.bmp",102,
2/22/2017,16:25,C:\Documents and Settings\lab\Desktop\Tadpole\Stroop Task\stroop 2.csv,168,1,1,57,57.01,encode,57,SPACE,"RED",1042,True,111671,31,48,"RED",1067,"blacksquare.bmp",101,
2/22/2017,16:25,C:\Documents and Settings\lab\Desktop\Tadpole\Stroop Task\stroop 2.csv,168,1,1,58,58.01,encode,57,SPACE,"GREEN",1176,True,112887,32,48,"GREEN",1201,"blacksquare.bmp",101,
2/22/2017,16:25,C:\Documents and Settings\lab\Desktop\Tadpole\Stroop Task\stroop 2.csv,168,1,1,59,59.01,encode,57,SPACE,"RED",1057,True,114237,32,49,"RED",1083,"blacksquare.bmp",102,
2/22/2017,16:25,C:\Documents and Settings\lab\Desktop\Tadpole\Stroop Task\stroop 2.csv,168,1,1,60,60.01,encode,57,SPACE,"YELLOW",1143,True,115471,32,48,"YELLOW",1166,"blacksquare.bmp",102,
2/22/2017,16:25,C:\Documents and Settings\lab\Desktop\Tadpole\Stroop Task\stroop 2.csv,168,1,1,61,61.01,encode,57,SPACE,"YELLOW",1417,True,116787,32,49,"YELLOW",1433,"blacksquare.bmp",101,
2/22/2017,16:25,C:\Documents and Settings\lab\Desktop\Tadpole\Stroop Task\stroop 2.csv,168,1,1,62,62.01,encode,57,SPACE,"GREEN",1210,True,118370,32,49,"GREEN",1233,"blacksquare.bmp",102,
2/22/2017,16:25,C:\Documents and Settings\lab\Desktop\Tadpole\Stroop Task\stroop 2.csv,168,1,1,63,63.01,encode,57,SPACE,"YELLOW",1161,True,119754,32,49,"YELLOW",1183,"blacksquare.bmp",101,
2/22/2017,16:25,C:\Documents and Settings\lab\Desktop\Tadpole\Stroop Task\stroop 2.csv,168,1,1,64,64.01,encode,57,SPACE,"GREEN",1507,True,121087,32,49,"GREEN",1534,"blacksquare.bmp",100,
2/22/2017,16:25,C:\Documents and Settings\lab\Desktop\Tadpole\Stroop Task\stroop 2.csv,168,1,1,65,65.01,encode,57,SPACE,"YELLOW",1232,True,122770,33,49,"YELLOW",1250,"blacksquare.bmp",102,
2/22/2017,16:25,C:\Documents and Settings\lab\Desktop\Tadpole\Stroop Task\stroop 2.csv,168,1,1,66,66.01,encode,57,SPACE,"GREEN",1110,True,124171,32,49,"GREEN",1132,"blacksquare.bmp",102,
2/22/2017,16:25,C:\Documents and Settings\lab\Desktop\Tadpole\Stroop Task\stroop 2.csv,168,1,1,67,67.01,encode,57,SPACE,"BLUE",1234,True,125454,32,49,"BLUE",1250,"blacksquare.bmp",101,
2/22/2017,16:25,C:\Documents and Settings\lab\Desktop\Tadpole\Stroop Task\stroop 2.csv,168,1,1,68,68.01,encode,57,SPACE,"GREEN",969,True,126854,33,49,"GREEN",1000,"blacksquare.bmp",101,
2/22/2017,16:25,C:\Documents and Settings\lab\Desktop\Tadpole\Stroop Task\stroop 2.csv,168,1,1,69,69.01,encode,57,SPACE,"GREEN",1258,True,128004,32,49,"GREEN",1283,"blacksquare.bmp",101,
2/22/2017,16:25,C:\Documents and Settings\lab\Desktop\Tadpole\Stroop Task\stroop 2.csv,168,1,1,70,70.01,encode,57,SPACE,"YELLOW",1610,True,129437,33,49,"YELLOW",1634,"blacksquare.bmp",101,
2/22/2017,16:25,C:\Documents and Settings\lab\Desktop\Tadpole\Stroop Task\stroop 2.csv,168,1,1,71,71.01,encode,57,SPACE,"RED",1362,True,131221,32,48,"RED",1384,"blacksquare.bmp",101,
2/22/2017,16:25,C:\Documents and Settings\lab\Desktop\Tadpole\Stroop Task\stroop 2.csv,168,1,1,72,72.01,encode,57,SPACE,"YELLOW",1507,True,132754,32,49,"YELLOW",1534,"blacksquare.bmp",100,
2/22/2017,16:25,C:\Documents and Settings\lab\Desktop\Tadpole\Stroop Task\stroop 2.csv,168,1,1,73,73.01,encode,57,SPACE,"GREEN",1224,True,134437,33,49,"GREEN",1250,"blacksquare.bmp",102,
2/22/2017,16:25,C:\Documents and Settings\lab\Desktop\Tadpole\Stroop Task\stroop 2.csv,168,1,1,74,74.01,encode,57,SPACE,"YELLOW",1070,True,135838,32,49,"YELLOW",1099,"blacksquare.bmp",102,
2/22/2017,16:25,C:\Documents and Settings\lab\Desktop\Tadpole\Stroop Task\stroop 2.csv,168,1,1,75,75.01,encode,57,SPACE,"BLUE",1003,True,137088,32,49,"BLUE",1033,"blacksquare.bmp",101,
2/22/2017,16:25,C:\Documents and Settings\lab\Desktop\Tadpole\Stroop Task\stroop 2.csv,168,1,1,76,76.01,encode,57,SPACE,"BLUE",1339,True,138271,33,49,"BLUE",1366,"blacksquare.bmp",102,
2/22/2017,16:25,C:\Documents and Settings\lab\Desktop\Tadpole\Stroop Task\stroop 2.csv,168,1,1,77,77.01,encode,57,SPACE,"GREEN",1085,True,139788,32,49,"GREEN",1116,"blacksquare.bmp",102,
2/22/2017,16:25,C:\Documents and Settings\lab\Desktop\Tadpole\Stroop Task\stroop 2.csv,168,1,1,78,78.01,encode,57,SPACE,"RED",1122,True,141055,32,48,"RED",1150,"blacksquare.bmp",101,
2/22/2017,16:25,C:\Documents and Settings\lab\Desktop\Tadpole\Stroop Task\stroop 2.csv,168,1,1,79,79.01,encode,57,SPACE,"YELLOW",1182,True,142354,33,49,"YELLOW",1200,"blacksquare.bmp",102,
2/22/2017,16:25,C:\Documents and Settings\lab\Desktop\Tadpole\Stroop Task\stroop 2.csv,168,1,1,80,80.01,encode,57,SPACE,"BLUE",1087,True,143705,31,48,"BLUE",1117,"blacksquare.bmp",102,
2/22/2017,16:25,C:\Documents and Settings\lab\Desktop\Tadpole\Stroop Task\stroop 2.csv,168,1,1,81,81.01,encode,57,SPACE,"RED",987,True,144972,31,48,"RED",1017,"blacksquare.bmp",101,
2/22/2017,16:25,C:\Documents and Settings\lab\Desktop\Tadpole\Stroop Task\stroop 2.csv,168,1,1,82,82.01,encode,57,SPACE,"RED",1236,True,146138,32,48,"RED",1267,"blacksquare.bmp",102,
2/22/2017,16:25,C:\Documents and Settings\lab\Desktop\Tadpole\Stroop Task\stroop 2.csv,168,1,1,83,83.01,encode,57,SPACE,"BLUE",1203,True,147555,32,48,"BLUE",1234,"blacksquare.bmp",101,
2/22/2017,16:25,C:\Documents and Settings\lab\Desktop\Tadpole\Stroop Task\stroop 2.csv,168,1,1,84,84.01,encode,57,SPACE,"GREEN",1170,True,148938,32,49,"GREEN",1199,"blacksquare.bmp",102,
2/22/2017,16:25,C:\Documents and Settings\lab\Desktop\Tadpole\Stroop Task\stroop 2.csv,168,1,1,85,85.01,encode,57,SPACE,"BLUE",1275,True,150288,32,49,"BLUE",1300,"blacksquare.bmp",101,
2/22/2017,16:25,C:\Documents and Settings\lab\Desktop\Tadpole\Stroop Task\stroop 2.csv,168,1,1,86,86.01,encode,57,SPACE,"RED",1225,True,151738,32,49,"RED",1250,"blacksquare.bmp",101,
2/22/2017,16:25,C:\Documents and Settings\lab\Desktop\Tadpole\Stroop Task\stroop 2.csv,168,1,1,87,87.01,encode,57,SPACE,"BLUE",1193,True,153138,32,48,"BLUE",1217,"blacksquare.bmp",102,
2/22/2017,16:25,C:\Documents and Settings\lab\Desktop\Tadpole\Stroop Task\stroop 2.csv,168,1,1,88,88.01,encode,57,SPACE,"BLUE",1416,True,154505,32,49,"BLUE",1433,"blacksquare.bmp",101,
2/22/2017,16:25,C:\Documents and Settings\lab\Desktop\Tadpole\Stroop Task\stroop 2.csv,168,1,1,89,89.01,encode,57,SPACE,"BLUE",1056,True,156088,32,49,"BLUE",1084,"blacksquare.bmp",100,
2/22/2017,16:25,C:\Documents and Settings\lab\Desktop\Tadpole\Stroop Task\stroop 2.csv,168,1,1,90,90.01,encode,57,SPACE,"RED",1335,True,157321,32,49,"RED",1367,"blacksquare.bmp",101,
2/22/2017,16:25,C:\Documents and Settings\lab\Desktop\Tadpole\Stroop Task\stroop 2.csv,168,1,1,91,91.01,encode,57,SPACE,"RED",968,True,158838,32,49,"RED",1000,"blacksquare.bmp",101,
2/22/2017,16:25,C:\Documents and Settings\lab\Desktop\Tadpole\Stroop Task\stroop 2.csv,168,1,1,92,92.01,encode,57,SPACE,"YELLOW",1370,True,159988,32,49,"YELLOW",1400,"blacksquare.bmp",101,
2/22/2017,16:25,C:\Documents and Settings\lab\Desktop\Tadpole\Stroop Task\stroop 2.csv,168,1,1,93,93.01,encode,57,SPACE,"RED",1187,True,161538,32,49,"RED",1217,"blacksquare.bmp",101,
2/22/2017,16:25,C:\Documents and Settings\lab\Desktop\Tadpole\Stroop Task\stroop 2.csv,168,1,1,94,94.01,encode,57,SPACE,"GREEN",995,True,162905,32,49,"GREEN",1017,"blacksquare.bmp",101,
2/22/2017,16:25,C:\Documents and Settings\lab\Desktop\Tadpole\Stroop Task\stroop 2.csv,168,1,1,95,95.01,encode,57,SPACE,"RED",925,True,164072,31,48,"RED",950,"blacksquare.bmp",102,
2/22/2017,16:25,C:\Documents and Settings\lab\Desktop\Tadpole\Stroop Task\stroop 2.csv,168,1,1,96,96.01,encode,57,SPACE,"GREEN",935,True,165172,32,49,"GREEN",966,"blacksquare.bmp",101,
2/22/2017,16:25,C:\Documents and Settings\lab\Desktop\Tadpole\Stroop Task\stroop 2.csv,168,1,1,97,97.01,encode,57,SPACE,"YELLOW",1090,True,166288,32,49,"YELLOW",1117,"blacksquare.bmp",102,
2/22/2017,16:25,C:\Documents and Settings\lab\Desktop\Tadpole\Stroop Task\stroop 2.csv,168,1,1,98,98.01,encode,57,SPACE,"BLUE",919,True,167556,31,47,"BLUE",951,"blacksquare.bmp",101,
2/22/2017,16:25,C:\Documents and Settings\lab\Desktop\Tadpole\Stroop Task\stroop 2.csv,168,1,1,99,99.01,encode,57,SPACE,"BLUE",1489,True,168655,32,49,"BLUE",1517,"blacksquare.bmp",101,
2/22/2017,16:25,C:\Documents and Settings\lab\Desktop\Tadpole\Stroop Task\stroop 2.csv,168,1,1,100,100.01,encode,57,SPACE,"GREEN",1342,True,170322,32,49,"GREEN",1366,"blacksquare.bmp",102,
2/22/2017,16:25,C:\Documents and Settings\lab\Desktop\Tadpole\Stroop Task\stroop 2.csv,168,1,1,101,101.01,encode,57,SPACE,"GREEN",1047,True,171839,32,49,"GREEN",1066,"blacksquare.bmp",102,
2/22/2017,16:25,C:\Documents and Settings\lab\Desktop\Tadpole\Stroop Task\stroop 2.csv,168,1,1,102,102.01,encode,57,SPACE,"YELLOW",998,True,173056,32,48,"YELLOW",1017,"blacksquare.bmp",101,
2/22/2017,16:25,C:\Documents and Settings\lab\Desktop\Tadpole\Stroop Task\stroop 2.csv,168,1,1,103,103.01,encode,57,SPACE,"RED",984,True,174222,32,48,"RED",1000,"blacksquare.bmp",102,
2/22/2017,16:25,C:\Documents and Settings\lab\Desktop\Tadpole\Stroop Task\stroop 2.csv,168,1,1,104,104.01,encode,57,SPACE,"YELLOW",1320,True,175372,32,49,"YELLOW",1349,"blacksquare.bmp",102,
2/22/2017,16:25,C:\Documents and Settings\lab\Desktop\Tadpole\Stroop Task\stroop 2.csv,168,1,1,105,105.01,encode,57,SPACE,"RED",1347,True,176872,32,49,"RED",1367,"blacksquare.bmp",101,
2/22/2017,16:25,C:\Documents and Settings\lab\Desktop\Tadpole\Stroop Task\stroop 2.csv,168,1,1,106,106.01,encode,57,SPACE,"YELLOW",1231,True,178389,32,48,"YELLOW",1250,"blacksquare.bmp",102,
2/22/2017,16:25,C:\Documents and Settings\lab\Desktop\Tadpole\Stroop Task\stroop 2.csv,168,1,1,107,107.01,encode,57,SPACE,"GREEN",1133,True,179789,32,49,"GREEN",1149,"blacksquare.bmp",102,
2/22/2017,16:25,C:\Documents and Settings\lab\Desktop\Tadpole\Stroop Task\stroop 2.csv,168,1,1,108,108.01,encode,57,SPACE,"RED",1480,True,181089,32,49,"RED",1500,"blacksquare.bmp",101,
2/22/2017,16:25,C:\Documents and Settings\lab\Desktop\Tadpole\Stroop Task\stroop 2.csv,168,1,1,109,109.01,encode,57,SPACE,"YELLOW",1302,True,182739,32,49,"YELLOW",1333,"blacksquare.bmp",102,
2/22/2017,16:25,C:\Documents and Settings\lab\Desktop\Tadpole\Stroop Task\stroop 2.csv,168,1,1,110,110.01,encode,57,SPACE,"BLUE",1354,True,184223,32,48,"BLUE",1383,"blacksquare.bmp",102,
2/22/2017,16:25,C:\Documents and Settings\lab\Desktop\Tadpole\Stroop Task\stroop 2.csv,168,1,1,111,111.01,encode,57,SPACE,"GREEN",1307,True,185756,32,49,"GREEN",1333,"blacksquare.bmp",101,
2/22/2017,16:25,C:\Documents and Settings\lab\Desktop\Tadpole\Stroop Task\stroop 2.csv,168,1,1,112,112.01,encode,57,SPACE,"BLUE",1128,True,187239,32,49,"BLUE",1149,"blacksquare.bmp",102,
2/22/2017,16:25,C:\Documents and Settings\lab\Desktop\Tadpole\Stroop Task\stroop 2.csv,168,1,1,113,113.01,encode,57,SPACE,"RED",1315,True,188539,32,49,"RED",1333,"blacksquare.bmp",101,
2/22/2017,16:25,C:\Documents and Settings\lab\Desktop\Tadpole\Stroop Task\stroop 2.csv,168,1,1,114,114.01,encode,57,SPACE,"END",2168,True,190022,33,49,"END",2200,"blacksquare.bmp",101,
