Date,Time,File,Subj,Cond,Block,Trial,Order,task,Resp,Name,Stim,RT,Correct,Started@,LoadTime,TotalInt,Stim 1,Time 1,Stim 2,Time 2,
8/13/2014,11:30,C:\Documents and Settings\lab\Desktop\Tadpole\Stroop Task\stroop 2.csv,18,1,1,1,1.01,encode,57,SPACE,"press spacebar to start practice",30983,True,0,133,599,"press spacebar to start practice",31002,
8/13/2014,11:30,C:\Documents and Settings\lab\Desktop\Tadpole\Stroop Task\stroop 2.csv,18,1,1,2,2.01,encode,57,SPACE,"YELLOW",1723,True,31601,33,49,"YELLOW",1750,"blacksquare.bmp",501,
8/13/2014,11:30,C:\Documents and Settings\lab\Desktop\Tadpole\Stroop Task\stroop 2.csv,18,1,1,3,3.01,encode,57,SPACE,"BLUE",2136,True,33901,32,49,"BLUE",2167,"blacksquare.bmp",501,
8/13/2014,11:30,C:\Documents and Settings\lab\Desktop\Tadpole\Stroop Task\stroop 2.csv,18,1,1,4,4.01,encode,57,SPACE,"RED",1419,True,36618,32,49,"RED",1450,"blacksquare.bmp",501,
8/13/2014,11:30,C:\Documents and Settings\lab\Desktop\Tadpole\Stroop Task\stroop 2.csv,18,1,1,5,5.01,encode,57,SPACE,"GREEEN",1778,True,38618,32,49,"GREEEN",1800,"blacksquare.bmp",502,
8/13/2014,11:30,C:\Documents and Settings\lab\Desktop\Tadpole\Stroop Task\stroop 2.csv,18,1,1,6,6.01,encode,57,SPACE,"RED",1556,True,40969,32,48,"RED",1583,"blacksquare.bmp",501,
8/13/2014,11:30,C:\Documents and Settings\lab\Desktop\Tadpole\Stroop Task\stroop 2.csv,18,1,1,7,7.01,encode,57,SPACE,"BLUE",1896,True,43101,33,49,"BLUE",1917,"blacksquare.bmp",501,
8/13/2014,11:30,C:\Documents and Settings\lab\Desktop\Tadpole\Stroop Task\stroop 2.csv,18,1,1,8,8.01,encode,57,SPACE,"GREEN",1284,True,45568,32,49,"GREEN",1300,"blacksquare.bmp",502,
8/13/2014,11:30,C:\Documents and Settings\lab\Desktop\Tadpole\Stroop Task\stroop 2.csv,18,1,1,9,9.01,encode,57,SPACE,"BLUE",1176,True,47419,32,49,"BLUE",1199,"blacksquare.bmp",502,
8/13/2014,11:30,C:\Documents and Settings\lab\Desktop\Tadpole\Stroop Task\stroop 2.csv,18,1,1,10,10.01,encode,57,SPACE,"GREEN",1210,True,49169,32,49,"GREEN",1233,"blacksquare.bmp",501,
8/13/2014,11:30,C:\Documents and Settings\lab\Desktop\Tadpole\Stroop Task\stroop 2.csv,18,1,1,11,11.01,encode,57,SPACE,"YELLOW",1306,True,50952,32,49,"YELLOW",1333,"blacksquare.bmp",501,
8/13/2014,11:30,C:\Documents and Settings\lab\Desktop\Tadpole\Stroop Task\stroop 2.csv,18,1,1,12,12.01,encode,57,SPACE,"END",19775,True,52835,32,49,"END",19800,"blacksquare.bmp",501,
8/13/2014,11:30,C:\Documents and Settings\lab\Desktop\Tadpole\Stroop Task\stroop 2.csv,18,1,1,13,13.01,encode,57,SPACE,"press spacebar to start task",720,True,73185,33,49,"press spacebar to start task",735,
8/13/2014,11:30,C:\Documents and Settings\lab\Desktop\Tadpole\Stroop Task\stroop 2.csv,18,1,1,14,14.01,encode,57,SPACE,"GREEN",1448,True,73969,32,48,"GREEN",1467,"blacksquare.bmp",102,
8/13/2014,11:30,C:\Documents and Settings\lab\Desktop\Tadpole\Stroop Task\stroop 2.csv,18,1,1,15,15.01,encode,57,SPACE,"BLUE",1221,True,75586,32,49,"BLUE",1250,"blacksquare.bmp",101,
8/13/2014,11:30,C:\Documents and Settings\lab\Desktop\Tadpole\Stroop Task\stroop 2.csv,18,1,1,16,16.01,encode,57,SPACE,"BLUE",1590,True,76986,31,48,"BLUE",1617,"blacksquare.bmp",102,
8/13/2014,11:30,C:\Documents and Settings\lab\Desktop\Tadpole\Stroop Task\stroop 2.csv,18,1,1,17,17.01,encode,57,SPACE,"YELLOW",1702,True,78753,32,49,"YELLOW",1733,"blacksquare.bmp",101,
8/13/2014,11:30,C:\Documents and Settings\lab\Desktop\Tadpole\Stroop Task\stroop 2.csv,18,1,1,18,18.01,encode,57,SPACE,"BLUE",1107,True,80636,32,48,"BLUE",1134,"blacksquare.bmp",101,
8/13/2014,11:30,C:\Documents and Settings\lab\Desktop\Tadpole\Stroop Task\stroop 2.csv,18,1,1,19,19.01,encode,57,SPACE,"BLUE",1262,True,81919,32,49,"BLUE",1283,"blacksquare.bmp",101,
8/13/2014,11:30,C:\Documents and Settings\lab\Desktop\Tadpole\Stroop Task\stroop 2.csv,18,1,1,20,20.01,encode,57,SPACE,"RED",1228,True,83352,33,49,"RED",1250,"blacksquare.bmp",102,
8/13/2014,11:30,C:\Documents and Settings\lab\Desktop\Tadpole\Stroop Task\stroop 2.csv,18,1,1,21,21.01,encode,57,SPACE,"RED",1322,True,84753,32,49,"RED",1349,"blacksquare.bmp",102,
8/13/2014,11:30,C:\Documents and Settings\lab\Desktop\Tadpole\Stroop Task\stroop 2.csv,18,1,1,22,22.01,encode,57,SPACE,"RED",1318,True,86253,32,49,"RED",1349,"blacksquare.bmp",102,
8/13/2014,11:30,C:\Documents and Settings\lab\Desktop\Tadpole\Stroop Task\stroop 2.csv,18,1,1,23,23.01,encode,57,SPACE,"RED",1073,True,87753,32,49,"RED",1099,"blacksquare.bmp",102,
8/13/2014,11:30,C:\Documents and Settings\lab\Desktop\Tadpole\Stroop Task\stroop 2.csv,18,1,1,24,24.01,encode,57,SPACE,"BLUE",1567,True,89003,32,49,"BLUE",1583,"blacksquare.bmp",101,
8/13/2014,11:30,C:\Documents and Settings\lab\Desktop\Tadpole\Stroop Task\stroop 2.csv,18,1,1,25,25.01,encode,57,SPACE,"YELLOW",1457,True,90736,32,49,"YELLOW",1483,"blacksquare.bmp",101,
8/13/2014,11:30,C:\Documents and Settings\lab\Desktop\Tadpole\Stroop Task\stroop 2.csv,18,1,1,26,26.01,encode,57,SPACE,"GREEN",1079,True,92369,32,49,"GREEN",1100,"blacksquare.bmp",101,
8/13/2014,11:30,C:\Documents and Settings\lab\Desktop\Tadpole\Stroop Task\stroop 2.csv,18,1,1,27,27.01,encode,57,SPACE,"YELLOW",1267,True,93619,32,49,"YELLOW",1284,"blacksquare.bmp",101,
8/13/2014,11:30,C:\Documents and Settings\lab\Desktop\Tadpole\Stroop Task\stroop 2.csv,18,1,1,28,28.01,encode,57,SPACE,"BLUE",1027,True,95053,32,48,"BLUE",1050,"blacksquare.bmp",102,
8/13/2014,11:30,C:\Documents and Settings\lab\Desktop\Tadpole\Stroop Task\stroop 2.csv,18,1,1,29,29.01,encode,57,SPACE,"YELLOW",944,True,96253,32,49,"YELLOW",966,"blacksquare.bmp",101,
8/13/2014,11:30,C:\Documents and Settings\lab\Desktop\Tadpole\Stroop Task\stroop 2.csv,18,1,1,30,30.01,encode,57,SPACE,"BLUE",1235,True,97369,32,49,"BLUE",1267,"blacksquare.bmp",101,
8/13/2014,11:30,C:\Documents and Settings\lab\Desktop\Tadpole\Stroop Task\stroop 2.csv,18,1,1,31,31.01,encode,57,SPACE,"GREEN",1506,True,98786,32,49,"GREEN",1533,"blacksquare.bmp",102,
8/13/2014,11:30,C:\Documents and Settings\lab\Desktop\Tadpole\Stroop Task\stroop 2.csv,18,1,1,32,32.01,encode,57,SPACE,"RED",917,True,100470,32,48,"RED",934,"blacksquare.bmp",101,
8/13/2014,11:30,C:\Documents and Settings\lab\Desktop\Tadpole\Stroop Task\stroop 2.csv,18,1,1,33,33.01,encode,57,SPACE,"YELLOW",1097,True,101553,32,48,"YELLOW",1118,"blacksquare.bmp",100,
8/13/2014,11:30,C:\Documents and Settings\lab\Desktop\Tadpole\Stroop Task\stroop 2.csv,18,1,1,34,34.01,encode,57,SPACE,"RED",1470,True,102819,32,49,"RED",1500,"blacksquare.bmp",102,
8/13/2014,11:30,C:\Documents and Settings\lab\Desktop\Tadpole\Stroop Task\stroop 2.csv,18,1,1,35,35.01,encode,57,SPACE,"YELLOW",1507,True,104470,32,48,"YELLOW",1534,"blacksquare.bmp",101,
8/13/2014,11:30,C:\Documents and Settings\lab\Desktop\Tadpole\Stroop Task\stroop 2.csv,18,1,1,36,36.01,encode,57,SPACE,"BLUE",1167,True,106153,32,49,"BLUE",1184,"blacksquare.bmp",100,
8/13/2014,11:30,C:\Documents and Settings\lab\Desktop\Tadpole\Stroop Task\stroop 2.csv,18,1,1,37,37.01,encode,57,SPACE,"BLUE",1297,True,107486,32,49,"BLUE",1316,"blacksquare.bmp",102,
8/13/2014,11:30,C:\Documents and Settings\lab\Desktop\Tadpole\Stroop Task\stroop 2.csv,18,1,1,38,38.01,encode,57,SPACE,"YELLOW",1069,True,108953,32,49,"YELLOW",1099,"blacksquare.bmp",102,
8/13/2014,11:30,C:\Documents and Settings\lab\Desktop\Tadpole\Stroop Task\stroop 2.csv,18,1,1,39,39.01,encode,57,SPACE,"YELLOW",1371,True,110203,32,49,"YELLOW",1400,"blacksquare.bmp",101,
8/13/2014,11:30,C:\Documents and Settings\lab\Desktop\Tadpole\Stroop Task\stroop 2.csv,18,1,1,40,40.01,encode,57,SPACE,"GREEN",1115,True,111753,32,49,"GREEN",1133,"blacksquare.bmp",101,
8/13/2014,11:30,C:\Documents and Settings\lab\Desktop\Tadpole\Stroop Task\stroop 2.csv,18,1,1,41,41.01,encode,57,SPACE,"YELLOW",1240,True,113036,32,49,"YELLOW",1267,"blacksquare.bmp",101,
8/13/2014,11:30,C:\Documents and Settings\lab\Desktop\Tadpole\Stroop Task\stroop 2.csv,18,1,1,42,42.01,encode,57,SPACE,"BLUE",1887,True,114453,32,49,"BLUE",1917,"blacksquare.bmp",100,
8/13/2014,11:30,C:\Documents and Settings\lab\Desktop\Tadpole\Stroop Task\stroop 2.csv,18,1,1,43,43.01,encode,57,SPACE,"GREEN",1060,True,116520,32,48,"GREEN",1084,"blacksquare.bmp",101,
8/13/2014,11:30,C:\Documents and Settings\lab\Desktop\Tadpole\Stroop Task\stroop 2.csv,18,1,1,44,44.01,encode,57,SPACE,"RED",1184,True,117753,32,49,"RED",1200,"blacksquare.bmp",101,
8/13/2014,11:30,C:\Documents and Settings\lab\Desktop\Tadpole\Stroop Task\stroop 2.csv,18,1,1,45,45.01,encode,57,SPACE,"GREEN",1073,True,119103,33,49,"GREEN",1100,"blacksquare.bmp",101,
8/13/2014,11:30,C:\Documents and Settings\lab\Desktop\Tadpole\Stroop Task\stroop 2.csv,18,1,1,46,46.01,encode,57,SPACE,"YELLOW",1118,True,120353,33,49,"YELLOW",1150,"blacksquare.bmp",101,
8/13/2014,11:30,C:\Documents and Settings\lab\Desktop\Tadpole\Stroop Task\stroop 2.csv,18,1,1,47,47.01,encode,57,SPACE,"RED",1018,True,121653,32,49,"RED",1033,"blacksquare.bmp",102,
8/13/2014,11:30,C:\Documents and Settings\lab\Desktop\Tadpole\Stroop Task\stroop 2.csv,18,1,1,48,48.01,encode,57,SPACE,"GREEN",825,True,122837,32,49,"GREEN",849,"blacksquare.bmp",102,
8/13/2014,11:30,C:\Documents and Settings\lab\Desktop\Tadpole\Stroop Task\stroop 2.csv,18,1,1,49,49.01,encode,57,SPACE,"YELLOW",912,True,123837,32,49,"YELLOW",933,"blacksquare.bmp",101,
8/13/2014,11:30,C:\Documents and Settings\lab\Desktop\Tadpole\Stroop Task\stroop 2.csv,18,1,1,50,50.01,encode,57,SPACE,"RED",1091,True,124920,32,49,"RED",1117,"blacksquare.bmp",100,
8/13/2014,11:30,C:\Documents and Settings\lab\Desktop\Tadpole\Stroop Task\stroop 2.csv,18,1,1,51,51.01,encode,57,SPACE,"YELLOW",1153,True,126186,33,49,"YELLOW",1184,"blacksquare.bmp",101,
8/13/2014,11:30,C:\Documents and Settings\lab\Desktop\Tadpole\Stroop Task\stroop 2.csv,18,1,1,52,52.01,encode,57,SPACE,"GREEN",1330,True,127520,33,49,"GREEN",1350,"blacksquare.bmp",101,
8/13/2014,11:30,C:\Documents and Settings\lab\Desktop\Tadpole\Stroop Task\stroop 2.csv,18,1,1,53,53.01,encode,57,SPACE,"RED",1005,True,129020,33,49,"RED",1033,"blacksquare.bmp",102,
8/13/2014,11:30,C:\Documents and Settings\lab\Desktop\Tadpole\Stroop Task\stroop 2.csv,18,1,1,54,54.01,encode,57,SPACE,"RED",1094,True,130204,31,48,"RED",1117,"blacksquare.bmp",102,
8/13/2014,11:30,C:\Documents and Settings\lab\Desktop\Tadpole\Stroop Task\stroop 2.csv,18,1,1,55,55.01,encode,57,SPACE,"GREEN",786,True,131471,31,48,"GREEN",817,"blacksquare.bmp",101,
8/13/2014,11:30,C:\Documents and Settings\lab\Desktop\Tadpole\Stroop Task\stroop 2.csv,18,1,1,56,56.01,encode,57,SPACE,"BLUE",994,True,132437,32,48,"BLUE",1018,"blacksquare.bmp",100,
8/13/2014,11:30,C:\Documents and Settings\lab\Desktop\Tadpole\Stroop Task\stroop 2.csv,18,1,1,57,57.01,encode,57,SPACE,"RED",842,True,133603,33,49,"RED",867,"blacksquare.bmp",101,
8/13/2014,11:30,C:\Documents and Settings\lab\Desktop\Tadpole\Stroop Task\stroop 2.csv,18,1,1,58,58.01,encode,57,SPACE,"GREEN",1496,True,134620,32,49,"GREEN",1516,"blacksquare.bmp",102,
8/13/2014,11:30,C:\Documents and Settings\lab\Desktop\Tadpole\Stroop Task\stroop 2.csv,18,1,1,59,59.01,encode,57,SPACE,"RED",1262,True,136287,32,49,"RED",1283,"blacksquare.bmp",102,
8/13/2014,11:30,C:\Documents and Settings\lab\Desktop\Tadpole\Stroop Task\stroop 2.csv,18,1,1,60,60.01,encode,57,SPACE,"YELLOW",1035,True,137721,32,48,"YELLOW",1050,"blacksquare.bmp",102,
8/13/2014,11:30,C:\Documents and Settings\lab\Desktop\Tadpole\Stroop Task\stroop 2.csv,18,1,1,61,61.01,encode,57,SPACE,"YELLOW",1538,True,138921,31,48,"YELLOW",1567,"blacksquare.bmp",101,
8/13/2014,11:30,C:\Documents and Settings\lab\Desktop\Tadpole\Stroop Task\stroop 2.csv,18,1,1,62,62.01,encode,57,SPACE,"GREEN",957,True,140637,32,48,"GREEN",984,"blacksquare.bmp",101,
8/13/2014,11:30,C:\Documents and Settings\lab\Desktop\Tadpole\Stroop Task\stroop 2.csv,18,1,1,63,63.01,encode,57,SPACE,"YELLOW",1511,True,141770,33,49,"YELLOW",1533,"blacksquare.bmp",102,
8/13/2014,11:30,C:\Documents and Settings\lab\Desktop\Tadpole\Stroop Task\stroop 2.csv,18,1,1,64,64.01,encode,57,SPACE,"GREEN",1250,True,143454,32,49,"GREEN",1266,"blacksquare.bmp",101,
8/13/2014,11:30,C:\Documents and Settings\lab\Desktop\Tadpole\Stroop Task\stroop 2.csv,18,1,1,65,65.01,encode,57,SPACE,"YELLOW",976,True,144870,32,49,"YELLOW",1000,"blacksquare.bmp",101,
8/13/2014,11:30,C:\Documents and Settings\lab\Desktop\Tadpole\Stroop Task\stroop 2.csv,18,1,1,66,66.01,encode,57,SPACE,"GREEN",858,True,146020,33,49,"GREEN",884,"blacksquare.bmp",101,
8/13/2014,11:30,C:\Documents and Settings\lab\Desktop\Tadpole\Stroop Task\stroop 2.csv,18,1,1,67,67.01,encode,57,SPACE,"BLUE",1039,True,147054,32,48,"BLUE",1067,"blacksquare.bmp",101,
8/13/2014,11:30,C:\Documents and Settings\lab\Desktop\Tadpole\Stroop Task\stroop 2.csv,18,1,1,68,68.01,encode,57,SPACE,"GREEN",1062,True,148270,33,49,"GREEN",1083,"blacksquare.bmp",102,
8/13/2014,11:30,C:\Documents and Settings\lab\Desktop\Tadpole\Stroop Task\stroop 2.csv,18,1,1,69,69.01,encode,57,SPACE,"GREEN",947,True,149504,32,49,"GREEN",966,"blacksquare.bmp",102,
8/13/2014,11:30,C:\Documents and Settings\lab\Desktop\Tadpole\Stroop Task\stroop 2.csv,18,1,1,70,70.01,encode,57,SPACE,"YELLOW",1165,True,150621,31,49,"YELLOW",1182,"blacksquare.bmp",102,
8/13/2014,11:30,C:\Documents and Settings\lab\Desktop\Tadpole\Stroop Task\stroop 2.csv,18,1,1,71,71.01,encode,57,SPACE,"RED",1127,True,151954,32,49,"RED",1150,"blacksquare.bmp",101,
8/13/2014,11:30,C:\Documents and Settings\lab\Desktop\Tadpole\Stroop Task\stroop 2.csv,18,1,1,72,72.01,encode,57,SPACE,"YELLOW",914,True,153254,32,49,"YELLOW",933,"blacksquare.bmp",102,
8/13/2014,11:30,C:\Documents and Settings\lab\Desktop\Tadpole\Stroop Task\stroop 2.csv,18,1,1,73,73.01,encode,57,SPACE,"GREEN",1302,True,154338,31,48,"GREEN",1334,"blacksquare.bmp",101,
8/13/2014,11:30,C:\Documents and Settings\lab\Desktop\Tadpole\Stroop Task\stroop 2.csv,18,1,1,74,74.01,encode,57,SPACE,"YELLOW",1322,True,155821,31,48,"YELLOW",1351,"blacksquare.bmp",101,
8/13/2014,11:30,C:\Documents and Settings\lab\Desktop\Tadpole\Stroop Task\stroop 2.csv,18,1,1,75,75.01,encode,57,SPACE,"BLUE",1094,True,157321,31,48,"BLUE",1117,"blacksquare.bmp",102,
8/13/2014,11:30,C:\Documents and Settings\lab\Desktop\Tadpole\Stroop Task\stroop 2.csv,18,1,1,76,76.01,encode,57,SPACE,"BLUE",2057,True,158588,32,49,"BLUE",2083,"blacksquare.bmp",101,
8/13/2014,11:30,C:\Documents and Settings\lab\Desktop\Tadpole\Stroop Task\stroop 2.csv,18,1,1,77,77.01,encode,57,SPACE,"GREEN",1416,True,160821,31,49,"GREEN",1433,"blacksquare.bmp",101,
8/13/2014,11:30,C:\Documents and Settings\lab\Desktop\Tadpole\Stroop Task\stroop 2.csv,18,1,1,78,78.01,encode,57,SPACE,"RED",936,True,162404,32,49,"RED",967,"blacksquare.bmp",100,
8/13/2014,11:30,C:\Documents and Settings\lab\Desktop\Tadpole\Stroop Task\stroop 2.csv,18,1,1,79,79.01,encode,57,SPACE,"YELLOW",866,True,163520,33,49,"YELLOW",884,"blacksquare.bmp",102,
8/13/2014,11:30,C:\Documents and Settings\lab\Desktop\Tadpole\Stroop Task\stroop 2.csv,18,1,1,80,80.01,encode,57,SPACE,"BLUE",959,True,164555,32,48,"BLUE",984,"blacksquare.bmp",100,
8/13/2014,11:30,C:\Documents and Settings\lab\Desktop\Tadpole\Stroop Task\stroop 2.csv,18,1,1,81,81.01,encode,57,SPACE,"RED",1018,True,165687,33,49,"RED",1033,"blacksquare.bmp",102,
8/13/2014,11:30,C:\Documents and Settings\lab\Desktop\Tadpole\Stroop Task\stroop 2.csv,18,1,1,82,82.01,encode,57,SPACE,"RED",1297,True,166871,32,49,"RED",1316,"blacksquare.bmp",102,
8/13/2014,11:30,C:\Documents and Settings\lab\Desktop\Tadpole\Stroop Task\stroop 2.csv,18,1,1,83,83.01,encode,57,SPACE,"BLUE",1133,True,168338,32,49,"BLUE",1149,"blacksquare.bmp",102,
8/13/2014,11:30,C:\Documents and Settings\lab\Desktop\Tadpole\Stroop Task\stroop 2.csv,18,1,1,84,84.01,encode,57,SPACE,"GREEN",1297,True,169638,32,48,"GREEN",1317,"blacksquare.bmp",101,
8/13/2014,11:30,C:\Documents and Settings\lab\Desktop\Tadpole\Stroop Task\stroop 2.csv,18,1,1,85,85.01,encode,57,SPACE,"BLUE",1301,True,171104,33,49,"BLUE",1333,"blacksquare.bmp",102,
8/13/2014,11:30,C:\Documents and Settings\lab\Desktop\Tadpole\Stroop Task\stroop 2.csv,18,1,1,86,86.01,encode,57,SPACE,"RED",1544,True,172588,32,49,"RED",1566,"blacksquare.bmp",102,
8/13/2014,11:30,C:\Documents and Settings\lab\Desktop\Tadpole\Stroop Task\stroop 2.csv,18,1,1,87,87.01,encode,57,SPACE,"BLUE",948,True,174305,32,48,"BLUE",967,"blacksquare.bmp",101,
8/13/2014,11:30,C:\Documents and Settings\lab\Desktop\Tadpole\Stroop Task\stroop 2.csv,18,1,1,88,88.01,encode,57,SPACE,"BLUE",1318,True,175421,32,49,"BLUE",1350,"blacksquare.bmp",101,
8/13/2014,11:30,C:\Documents and Settings\lab\Desktop\Tadpole\Stroop Task\stroop 2.csv,18,1,1,89,89.01,encode,57,SPACE,"BLUE",1667,True,176921,32,49,"BLUE",1683,"blacksquare.bmp",102,
8/13/2014,11:30,C:\Documents and Settings\lab\Desktop\Tadpole\Stroop Task\stroop 2.csv,18,1,1,90,90.01,encode,57,SPACE,"RED",911,True,178755,32,49,"RED",932,"blacksquare.bmp",102,
8/13/2014,11:30,C:\Documents and Settings\lab\Desktop\Tadpole\Stroop Task\stroop 2.csv,18,1,1,91,91.01,encode,57,SPACE,"RED",1075,True,179838,32,49,"RED",1099,"blacksquare.bmp",102,
8/13/2014,11:30,C:\Documents and Settings\lab\Desktop\Tadpole\Stroop Task\stroop 2.csv,18,1,1,92,92.01,encode,57,SPACE,"YELLOW",1144,True,181088,32,49,"YELLOW",1167,"blacksquare.bmp",100,
8/13/2014,11:30,C:\Documents and Settings\lab\Desktop\Tadpole\Stroop Task\stroop 2.csv,18,1,1,93,93.01,encode,57,SPACE,"RED",1034,True,182404,32,49,"RED",1051,"blacksquare.bmp",100,
8/13/2014,11:30,C:\Documents and Settings\lab\Desktop\Tadpole\Stroop Task\stroop 2.csv,18,1,1,94,94.01,encode,57,SPACE,"GREEN",962,True,183604,33,49,"GREEN",984,"blacksquare.bmp",101,
8/13/2014,11:30,C:\Documents and Settings\lab\Desktop\Tadpole\Stroop Task\stroop 2.csv,18,1,1,95,95.01,encode,57,SPACE,"RED",1195,True,184738,32,49,"RED",1217,"blacksquare.bmp",100,
8/13/2014,11:30,C:\Documents and Settings\lab\Desktop\Tadpole\Stroop Task\stroop 2.csv,18,1,1,96,96.01,encode,57,SPACE,"GREEN",1004,True,186104,33,49,"GREEN",1033,"blacksquare.bmp",102,
8/13/2014,11:30,C:\Documents and Settings\lab\Desktop\Tadpole\Stroop Task\stroop 2.csv,18,1,1,97,97.01,encode,57,SPACE,"YELLOW",1019,True,187288,32,49,"YELLOW",1050,"blacksquare.bmp",101,
8/13/2014,11:30,C:\Documents and Settings\lab\Desktop\Tadpole\Stroop Task\stroop 2.csv,18,1,1,98,98.01,encode,57,SPACE,"BLUE",962,True,188488,32,49,"BLUE",983,"blacksquare.bmp",101,
8/13/2014,11:30,C:\Documents and Settings\lab\Desktop\Tadpole\Stroop Task\stroop 2.csv,18,1,1,99,99.01,encode,57,SPACE,"BLUE",948,True,189621,32,49,"BLUE",967,"blacksquare.bmp",101,
8/13/2014,11:30,C:\Documents and Settings\lab\Desktop\Tadpole\Stroop Task\stroop 2.csv,18,1,1,100,100.01,encode,57,SPACE,"GREEN",1046,True,190738,32,49,"GREEN",1066,"blacksquare.bmp",102,
8/13/2014,11:30,C:\Documents and Settings\lab\Desktop\Tadpole\Stroop Task\stroop 2.csv,18,1,1,101,101.01,encode,57,SPACE,"GREEN",1124,True,191955,32,49,"GREEN",1149,"blacksquare.bmp",102,
8/13/2014,11:30,C:\Documents and Settings\lab\Desktop\Tadpole\Stroop Task\stroop 2.csv,18,1,1,102,102.01,encode,57,SPACE,"YELLOW",1031,True,193255,32,49,"YELLOW",1049,"blacksquare.bmp",102,
8/13/2014,11:30,C:\Documents and Settings\lab\Desktop\Tadpole\Stroop Task\stroop 2.csv,18,1,1,103,103.01,encode,57,SPACE,"RED",870,True,194455,32,49,"RED",899,"blacksquare.bmp",102,
8/13/2014,11:30,C:\Documents and Settings\lab\Desktop\Tadpole\Stroop Task\stroop 2.csv,18,1,1,104,104.01,encode,57,SPACE,"YELLOW",1083,True,195505,32,49,"YELLOW",1099,"blacksquare.bmp",102,
8/13/2014,11:30,C:\Documents and Settings\lab\Desktop\Tadpole\Stroop Task\stroop 2.csv,18,1,1,105,105.01,encode,57,SPACE,"RED",1176,True,196755,32,49,"RED",1200,"blacksquare.bmp",101,
8/13/2014,11:30,C:\Documents and Settings\lab\Desktop\Tadpole\Stroop Task\stroop 2.csv,18,1,1,106,106.01,encode,57,SPACE,"YELLOW",1099,True,198105,32,48,"YELLOW",1117,"blacksquare.bmp",102,
8/13/2014,11:30,C:\Documents and Settings\lab\Desktop\Tadpole\Stroop Task\stroop 2.csv,18,1,1,107,107.01,encode,57,SPACE,"GREEN",909,True,199372,31,49,"GREEN",932,"blacksquare.bmp",102,
8/13/2014,11:30,C:\Documents and Settings\lab\Desktop\Tadpole\Stroop Task\stroop 2.csv,18,1,1,108,108.01,encode,57,SPACE,"RED",962,True,200455,32,49,"RED",983,"blacksquare.bmp",102,
8/13/2014,11:30,C:\Documents and Settings\lab\Desktop\Tadpole\Stroop Task\stroop 2.csv,18,1,1,109,109.01,encode,57,SPACE,"YELLOW",1011,True,201589,31,48,"YELLOW",1034,"blacksquare.bmp",100,
8/13/2014,11:30,C:\Documents and Settings\lab\Desktop\Tadpole\Stroop Task\stroop 2.csv,18,1,1,110,110.01,encode,57,SPACE,"BLUE",1300,True,202771,33,49,"BLUE",1318,"blacksquare.bmp",100,
8/13/2014,11:30,C:\Documents and Settings\lab\Desktop\Tadpole\Stroop Task\stroop 2.csv,18,1,1,111,111.01,encode,57,SPACE,"GREEN",1032,True,204238,32,49,"GREEN",1050,"blacksquare.bmp",101,
8/13/2014,11:30,C:\Documents and Settings\lab\Desktop\Tadpole\Stroop Task\stroop 2.csv,18,1,1,112,112.01,encode,57,SPACE,"BLUE",1103,True,205438,33,49,"BLUE",1134,"blacksquare.bmp",101,
8/13/2014,11:30,C:\Documents and Settings\lab\Desktop\Tadpole\Stroop Task\stroop 2.csv,18,1,1,113,113.01,encode,57,SPACE,"RED",971,True,206722,32,48,"RED",1000,"blacksquare.bmp",102,
8/13/2014,11:30,C:\Documents and Settings\lab\Desktop\Tadpole\Stroop Task\stroop 2.csv,18,1,1,114,114.01,encode,0,,"",0,False,207872,32,49,"END",-209735,"blacksquare.bmp",0,
