Date,Time,File,Subj,Cond,Block,Trial,Order,task,Resp,Name,Stim,RT,Correct,Started@,LoadTime,TotalInt,Stim 1,Time 1,Stim 2,Time 2,
11/12/2014,10:22,C:\Documents and Settings\lab\Desktop\Tadpole\Stroop Task\stroop 1.csv,48,1,1,1,1.01,encode,57,SPACE,"press spacebar to start practice",20750,True,33,283,300,"press spacebar to start practice",20785,
11/12/2014,10:22,C:\Documents and Settings\lab\Desktop\Tadpole\Stroop Task\stroop 1.csv,48,1,1,2,2.01,encode,57,SPACE,"YELLOW",2071,True,21118,82,99,"YELLOW",2099,"blacksquare.bmp",486,
11/12/2014,10:22,C:\Documents and Settings\lab\Desktop\Tadpole\Stroop Task\stroop 1.csv,48,1,1,3,3.01,encode,57,SPACE,"BLUE",1715,True,23802,31,48,"BLUE",1733,"blacksquare.bmp",485,
11/12/2014,10:22,C:\Documents and Settings\lab\Desktop\Tadpole\Stroop Task\stroop 1.csv,48,1,1,4,4.01,encode,57,SPACE,"RED",1445,True,26068,32,49,"RED",1467,"blacksquare.bmp",484,
11/12/2014,10:22,C:\Documents and Settings\lab\Desktop\Tadpole\Stroop Task\stroop 1.csv,48,1,1,5,5.01,encode,57,SPACE,"GREEN",1522,True,28068,32,49,"GREEN",1550,"blacksquare.bmp",484,
11/12/2014,10:22,C:\Documents and Settings\lab\Desktop\Tadpole\Stroop Task\stroop 1.csv,48,1,1,6,6.01,encode,57,SPACE,"RED",1444,True,30151,32,49,"RED",1467,"blacksquare.bmp",484,
11/12/2014,10:22,C:\Documents and Settings\lab\Desktop\Tadpole\Stroop Task\stroop 1.csv,48,1,1,7,7.01,encode,57,SPACE,"BLUE",1457,True,32151,32,49,"BLUE",1483,"blacksquare.bmp",485,
11/12/2014,10:22,C:\Documents and Settings\lab\Desktop\Tadpole\Stroop Task\stroop 1.csv,48,1,1,8,8.01,encode,57,SPACE,"GREEN",1158,True,34168,32,49,"GREEN",1183,"blacksquare.bmp",485,
11/12/2014,10:22,C:\Documents and Settings\lab\Desktop\Tadpole\Stroop Task\stroop 1.csv,48,1,1,9,9.01,encode,57,SPACE,"BLUE",998,True,35885,32,48,"BLUE",1017,"blacksquare.bmp",484,
11/12/2014,10:22,C:\Documents and Settings\lab\Desktop\Tadpole\Stroop Task\stroop 1.csv,48,1,1,10,10.01,encode,57,SPACE,"GREEN",1310,True,37434,33,49,"GREEN",1334,"blacksquare.bmp",485,
11/12/2014,10:22,C:\Documents and Settings\lab\Desktop\Tadpole\Stroop Task\stroop 1.csv,48,1,1,11,11.01,encode,57,SPACE,"YELLOW",1160,True,39302,32,48,"YELLOW",1184,"blacksquare.bmp",484,
11/12/2014,10:22,C:\Documents and Settings\lab\Desktop\Tadpole\Stroop Task\stroop 1.csv,48,1,1,12,12.01,encode,57,SPACE,"END",1632,True,41018,33,49,"END",1650,"blacksquare.bmp",485,
11/12/2014,10:22,C:\Documents and Settings\lab\Desktop\Tadpole\Stroop Task\stroop 1.csv,48,1,1,13,13.01,encode,57,SPACE,"press spacebar to start task",4453,True,43202,31,48,"press spacebar to start task",4469,
11/12/2014,10:22,C:\Documents and Settings\lab\Desktop\Tadpole\Stroop Task\stroop 1.csv,48,1,1,14,14.01,encode,57,SPACE,"YELLOW",2157,True,47719,32,48,"YELLOW",2183,"blacksquare.bmp",485,
11/12/2014,10:22,C:\Documents and Settings\lab\Desktop\Tadpole\Stroop Task\stroop 1.csv,48,1,1,15,15.01,encode,57,SPACE,"RED",1102,True,50435,32,48,"RED",1134,"blacksquare.bmp",484,
11/12/2014,10:22,C:\Documents and Settings\lab\Desktop\Tadpole\Stroop Task\stroop 1.csv,48,1,1,16,16.01,encode,57,SPACE,"GREEN",1040,True,52101,33,49,"GREEN",1067,"blacksquare.bmp",485,
11/12/2014,10:22,C:\Documents and Settings\lab\Desktop\Tadpole\Stroop Task\stroop 1.csv,48,1,1,17,17.01,encode,57,SPACE,"RED",845,True,53702,32,49,"RED",866,"blacksquare.bmp",484,
11/12/2014,10:22,C:\Documents and Settings\lab\Desktop\Tadpole\Stroop Task\stroop 1.csv,48,1,1,18,18.01,encode,57,SPACE,"YELLOW",1162,True,55101,33,49,"YELLOW",1184,"blacksquare.bmp",484,
11/12/2014,10:22,C:\Documents and Settings\lab\Desktop\Tadpole\Stroop Task\stroop 1.csv,48,1,1,19,19.01,encode,57,SPACE,"BLUE",971,True,56818,32,49,"BLUE",1000,"blacksquare.bmp",484,
11/12/2014,10:22,C:\Documents and Settings\lab\Desktop\Tadpole\Stroop Task\stroop 1.csv,48,1,1,20,20.01,encode,57,SPACE,"YELLOW",1259,True,58351,33,49,"YELLOW",1283,"blacksquare.bmp",486,
11/12/2014,10:22,C:\Documents and Settings\lab\Desktop\Tadpole\Stroop Task\stroop 1.csv,48,1,1,21,21.01,encode,57,SPACE,"RED",1942,True,60169,32,49,"RED",1965,"blacksquare.bmp",486,
11/12/2014,10:22,C:\Documents and Settings\lab\Desktop\Tadpole\Stroop Task\stroop 1.csv,48,1,1,22,22.01,encode,57,SPACE,"YELLOW",1015,True,62669,32,49,"YELLOW",1033,"blacksquare.bmp",484,
11/12/2014,10:22,C:\Documents and Settings\lab\Desktop\Tadpole\Stroop Task\stroop 1.csv,48,1,1,23,23.01,encode,57,SPACE,"GREEN",990,True,64235,32,49,"GREEN",1017,"blacksquare.bmp",484,
11/12/2014,10:22,C:\Documents and Settings\lab\Desktop\Tadpole\Stroop Task\stroop 1.csv,48,1,1,24,24.01,encode,57,SPACE,"GREEN",942,True,65785,32,49,"GREEN",967,"blacksquare.bmp",484,
11/12/2014,10:22,C:\Documents and Settings\lab\Desktop\Tadpole\Stroop Task\stroop 1.csv,48,1,1,25,25.01,encode,57,SPACE,"YELLOW",799,True,67285,32,49,"YELLOW",816,"blacksquare.bmp",486,
11/12/2014,10:22,C:\Documents and Settings\lab\Desktop\Tadpole\Stroop Task\stroop 1.csv,48,1,1,26,26.01,encode,57,SPACE,"GREEN",998,True,68636,32,48,"GREEN",1017,"blacksquare.bmp",484,
11/12/2014,10:22,C:\Documents and Settings\lab\Desktop\Tadpole\Stroop Task\stroop 1.csv,48,1,1,27,27.01,encode,57,SPACE,"GREEN",982,True,70185,33,49,"GREEN",1000,"blacksquare.bmp",485,
11/12/2014,10:22,C:\Documents and Settings\lab\Desktop\Tadpole\Stroop Task\stroop 1.csv,48,1,1,28,28.01,encode,57,SPACE,"RED",950,True,71719,32,48,"RED",967,"blacksquare.bmp",485,
11/12/2014,10:22,C:\Documents and Settings\lab\Desktop\Tadpole\Stroop Task\stroop 1.csv,48,1,1,29,29.01,encode,57,SPACE,"BLUE",1303,True,73219,32,48,"BLUE",1333,"blacksquare.bmp",486,
11/12/2014,10:22,C:\Documents and Settings\lab\Desktop\Tadpole\Stroop Task\stroop 1.csv,48,1,1,30,30.01,encode,57,SPACE,"YELLOW",1353,True,75086,31,48,"YELLOW",1383,"blacksquare.bmp",485,
11/12/2014,10:22,C:\Documents and Settings\lab\Desktop\Tadpole\Stroop Task\stroop 1.csv,48,1,1,31,31.01,encode,57,SPACE,"RED",1065,True,77002,32,49,"RED",1084,"blacksquare.bmp",484,
11/12/2014,10:22,C:\Documents and Settings\lab\Desktop\Tadpole\Stroop Task\stroop 1.csv,48,1,1,32,32.01,encode,57,SPACE,"GREEN",1086,True,78619,32,49,"GREEN",1116,"blacksquare.bmp",484,
11/12/2014,10:22,C:\Documents and Settings\lab\Desktop\Tadpole\Stroop Task\stroop 1.csv,48,1,1,33,33.01,encode,57,SPACE,"GREEN",1106,True,80268,33,49,"GREEN",1134,"blacksquare.bmp",484,
11/12/2014,10:22,C:\Documents and Settings\lab\Desktop\Tadpole\Stroop Task\stroop 1.csv,48,1,1,34,34.01,encode,57,SPACE,"YELLOW",1476,True,81935,33,49,"YELLOW",1500,"blacksquare.bmp",485,
11/12/2014,10:22,C:\Documents and Settings\lab\Desktop\Tadpole\Stroop Task\stroop 1.csv,48,1,1,35,35.01,encode,57,SPACE,"YELLOW",1232,True,83969,32,48,"YELLOW",1250,"blacksquare.bmp",485,
11/12/2014,10:22,C:\Documents and Settings\lab\Desktop\Tadpole\Stroop Task\stroop 1.csv,48,1,1,36,36.01,encode,57,SPACE,"RED",941,True,85752,32,49,"RED",966,"blacksquare.bmp",485,
11/12/2014,10:22,C:\Documents and Settings\lab\Desktop\Tadpole\Stroop Task\stroop 1.csv,48,1,1,37,37.01,encode,57,SPACE,"GREEN",1094,True,87252,32,49,"GREEN",1117,"blacksquare.bmp",484,
11/12/2014,10:22,C:\Documents and Settings\lab\Desktop\Tadpole\Stroop Task\stroop 1.csv,48,1,1,38,38.01,encode,57,SPACE,"RED",1186,True,88902,32,49,"RED",1217,"blacksquare.bmp",484,
11/12/2014,10:22,C:\Documents and Settings\lab\Desktop\Tadpole\Stroop Task\stroop 1.csv,48,1,1,39,39.01,encode,57,SPACE,"GREEN",896,True,90652,32,49,"GREEN",917,"blacksquare.bmp",484,
11/12/2014,10:22,C:\Documents and Settings\lab\Desktop\Tadpole\Stroop Task\stroop 1.csv,48,1,1,40,40.01,encode,57,SPACE,"YELLOW",1012,True,92102,33,49,"YELLOW",1033,"blacksquare.bmp",485,
11/12/2014,10:22,C:\Documents and Settings\lab\Desktop\Tadpole\Stroop Task\stroop 1.csv,48,1,1,41,41.01,encode,57,SPACE,"GREEN",779,True,93669,32,49,"GREEN",799,"blacksquare.bmp",486,
11/12/2014,10:22,C:\Documents and Settings\lab\Desktop\Tadpole\Stroop Task\stroop 1.csv,48,1,1,42,42.01,encode,57,SPACE,"BLUE",1011,True,95003,31,48,"BLUE",1034,"blacksquare.bmp",484,
11/12/2014,10:22,C:\Documents and Settings\lab\Desktop\Tadpole\Stroop Task\stroop 1.csv,48,1,1,43,43.01,encode,57,SPACE,"YELLOW",1041,True,96569,32,49,"YELLOW",1066,"blacksquare.bmp",485,
11/12/2014,10:22,C:\Documents and Settings\lab\Desktop\Tadpole\Stroop Task\stroop 1.csv,48,1,1,44,44.01,encode,57,SPACE,"YELLOW",871,True,98169,32,49,"YELLOW",900,"blacksquare.bmp",484,
11/12/2014,10:22,C:\Documents and Settings\lab\Desktop\Tadpole\Stroop Task\stroop 1.csv,48,1,1,45,45.01,encode,57,SPACE,"RED",843,True,99602,33,49,"RED",866,"blacksquare.bmp",486,
11/12/2014,10:22,C:\Documents and Settings\lab\Desktop\Tadpole\Stroop Task\stroop 1.csv,48,1,1,46,46.01,encode,57,SPACE,"GREEN",863,True,101003,32,49,"GREEN",882,"blacksquare.bmp",485,
11/12/2014,10:22,C:\Documents and Settings\lab\Desktop\Tadpole\Stroop Task\stroop 1.csv,48,1,1,47,47.01,encode,57,SPACE,"YELLOW",1212,True,102419,32,49,"YELLOW",1233,"blacksquare.bmp",484,
11/12/2014,10:22,C:\Documents and Settings\lab\Desktop\Tadpole\Stroop Task\stroop 1.csv,48,1,1,48,48.01,encode,57,SPACE,"YELLOW",907,True,104185,33,49,"YELLOW",934,"blacksquare.bmp",484,
11/12/2014,10:22,C:\Documents and Settings\lab\Desktop\Tadpole\Stroop Task\stroop 1.csv,48,1,1,49,49.01,encode,57,SPACE,"RED",958,True,105652,32,49,"RED",983,"blacksquare.bmp",485,
11/12/2014,10:22,C:\Documents and Settings\lab\Desktop\Tadpole\Stroop Task\stroop 1.csv,48,1,1,50,50.01,encode,57,SPACE,"BLUE",1150,True,107169,32,49,"BLUE",1167,"blacksquare.bmp",484,
11/12/2014,10:22,C:\Documents and Settings\lab\Desktop\Tadpole\Stroop Task\stroop 1.csv,48,1,1,51,51.01,encode,57,SPACE,"BLUE",928,True,108869,32,49,"BLUE",950,"blacksquare.bmp",484,
11/12/2014,10:22,C:\Documents and Settings\lab\Desktop\Tadpole\Stroop Task\stroop 1.csv,48,1,1,52,52.01,encode,57,SPACE,"YELLOW",1058,True,110352,33,49,"YELLOW",1083,"blacksquare.bmp",486,
11/12/2014,10:22,C:\Documents and Settings\lab\Desktop\Tadpole\Stroop Task\stroop 1.csv,48,1,1,53,53.01,encode,57,SPACE,"BLUE",1606,True,111970,32,48,"BLUE",1633,"blacksquare.bmp",485,
11/12/2014,10:22,C:\Documents and Settings\lab\Desktop\Tadpole\Stroop Task\stroop 1.csv,48,1,1,54,54.01,encode,57,SPACE,"BLUE",1092,True,114136,32,48,"BLUE",1118,"blacksquare.bmp",484,
11/12/2014,10:22,C:\Documents and Settings\lab\Desktop\Tadpole\Stroop Task\stroop 1.csv,48,1,1,55,55.01,encode,57,SPACE,"RED",1055,True,115786,32,49,"RED",1083,"blacksquare.bmp",484,
11/12/2014,10:22,C:\Documents and Settings\lab\Desktop\Tadpole\Stroop Task\stroop 1.csv,48,1,1,56,56.01,encode,57,SPACE,"BLUE",1036,True,117403,31,48,"BLUE",1067,"blacksquare.bmp",485,
11/12/2014,10:22,C:\Documents and Settings\lab\Desktop\Tadpole\Stroop Task\stroop 1.csv,48,1,1,57,57.01,encode,57,SPACE,"RED",873,True,119003,32,49,"RED",899,"blacksquare.bmp",485,
11/12/2014,10:22,C:\Documents and Settings\lab\Desktop\Tadpole\Stroop Task\stroop 1.csv,48,1,1,58,58.01,encode,57,SPACE,"BLUE",828,True,120436,33,49,"BLUE",850,"blacksquare.bmp",484,
11/12/2014,10:22,C:\Documents and Settings\lab\Desktop\Tadpole\Stroop Task\stroop 1.csv,48,1,1,59,59.01,encode,57,SPACE,"YELLOW",884,True,121819,32,49,"YELLOW",900,"blacksquare.bmp",485,
11/12/2014,10:22,C:\Documents and Settings\lab\Desktop\Tadpole\Stroop Task\stroop 1.csv,48,1,1,60,60.01,encode,57,SPACE,"BLUE",902,True,123253,32,49,"BLUE",933,"blacksquare.bmp",485,
11/12/2014,10:22,C:\Documents and Settings\lab\Desktop\Tadpole\Stroop Task\stroop 1.csv,48,1,1,61,61.01,encode,57,SPACE,"RED",1018,True,124720,32,48,"RED",1034,"blacksquare.bmp",484,
11/12/2014,10:22,C:\Documents and Settings\lab\Desktop\Tadpole\Stroop Task\stroop 1.csv,48,1,1,62,62.01,encode,57,SPACE,"GREEN",801,True,126286,32,49,"GREEN",816,"blacksquare.bmp",486,
11/12/2014,10:22,C:\Documents and Settings\lab\Desktop\Tadpole\Stroop Task\stroop 1.csv,48,1,1,63,63.01,encode,57,SPACE,"RED",967,True,127637,31,48,"RED",983,"blacksquare.bmp",485,
11/12/2014,10:22,C:\Documents and Settings\lab\Desktop\Tadpole\Stroop Task\stroop 1.csv,48,1,1,64,64.01,encode,57,SPACE,"YELLOW",880,True,129153,32,49,"YELLOW",899,"blacksquare.bmp",485,
11/12/2014,10:22,C:\Documents and Settings\lab\Desktop\Tadpole\Stroop Task\stroop 1.csv,48,1,1,65,65.01,encode,57,SPACE,"BLUE",1284,True,130586,32,49,"BLUE",1300,"blacksquare.bmp",485,
11/12/2014,10:22,C:\Documents and Settings\lab\Desktop\Tadpole\Stroop Task\stroop 1.csv,48,1,1,66,66.01,encode,57,SPACE,"GREEN",1214,True,132420,32,49,"GREEN",1233,"blacksquare.bmp",484,
11/12/2014,10:22,C:\Documents and Settings\lab\Desktop\Tadpole\Stroop Task\stroop 1.csv,48,1,1,67,67.01,encode,57,SPACE,"GREEN",1311,True,134186,33,49,"GREEN",1333,"blacksquare.bmp",485,
11/12/2014,10:22,C:\Documents and Settings\lab\Desktop\Tadpole\Stroop Task\stroop 1.csv,48,1,1,68,68.01,encode,57,SPACE,"YELLOW",1449,True,136053,32,48,"YELLOW",1467,"blacksquare.bmp",485,
11/12/2014,10:22,C:\Documents and Settings\lab\Desktop\Tadpole\Stroop Task\stroop 1.csv,48,1,1,69,69.01,encode,57,SPACE,"RED",943,True,138053,32,48,"RED",967,"blacksquare.bmp",485,
11/12/2014,10:22,C:\Documents and Settings\lab\Desktop\Tadpole\Stroop Task\stroop 1.csv,48,1,1,70,70.01,encode,57,SPACE,"YELLOW",1096,True,139553,32,48,"YELLOW",1118,"blacksquare.bmp",484,
11/12/2014,10:22,C:\Documents and Settings\lab\Desktop\Tadpole\Stroop Task\stroop 1.csv,48,1,1,71,71.01,encode,57,SPACE,"GREEN",1017,True,141203,32,49,"GREEN",1050,"blacksquare.bmp",484,
11/12/2014,10:22,C:\Documents and Settings\lab\Desktop\Tadpole\Stroop Task\stroop 1.csv,48,1,1,72,72.01,encode,57,SPACE,"RED",712,True,142786,32,49,"RED",733,"blacksquare.bmp",486,
11/12/2014,10:22,C:\Documents and Settings\lab\Desktop\Tadpole\Stroop Task\stroop 1.csv,48,1,1,73,73.01,encode,57,SPACE,"GREEN",1131,True,144054,31,47,"GREEN",1151,"blacksquare.bmp",484,
11/12/2014,10:22,C:\Documents and Settings\lab\Desktop\Tadpole\Stroop Task\stroop 1.csv,48,1,1,74,74.01,encode,57,SPACE,"YELLOW",988,True,145736,32,49,"YELLOW",1017,"blacksquare.bmp",485,
11/12/2014,10:22,C:\Documents and Settings\lab\Desktop\Tadpole\Stroop Task\stroop 1.csv,48,1,1,75,75.01,encode,57,SPACE,"RED",860,True,147287,31,48,"RED",884,"blacksquare.bmp",484,
11/12/2014,10:22,C:\Documents and Settings\lab\Desktop\Tadpole\Stroop Task\stroop 1.csv,48,1,1,76,76.01,encode,57,SPACE,"RED",1177,True,148703,32,49,"RED",1200,"blacksquare.bmp",484,
11/12/2014,10:22,C:\Documents and Settings\lab\Desktop\Tadpole\Stroop Task\stroop 1.csv,48,1,1,77,77.01,encode,57,SPACE,"RED",985,True,150436,33,49,"RED",1000,"blacksquare.bmp",485,
11/12/2014,10:22,C:\Documents and Settings\lab\Desktop\Tadpole\Stroop Task\stroop 1.csv,48,1,1,78,78.01,encode,57,SPACE,"BLUE",1153,True,151970,32,48,"BLUE",1184,"blacksquare.bmp",484,
11/12/2014,10:22,C:\Documents and Settings\lab\Desktop\Tadpole\Stroop Task\stroop 1.csv,48,1,1,79,79.01,encode,57,SPACE,"BLUE",858,True,153686,33,49,"BLUE",884,"blacksquare.bmp",484,
11/12/2014,10:22,C:\Documents and Settings\lab\Desktop\Tadpole\Stroop Task\stroop 1.csv,48,1,1,80,80.01,encode,57,SPACE,"BLUE",1037,True,155103,33,49,"BLUE",1067,"blacksquare.bmp",484,
11/12/2014,10:22,C:\Documents and Settings\lab\Desktop\Tadpole\Stroop Task\stroop 1.csv,48,1,1,81,81.01,encode,57,SPACE,"RED",938,True,156703,32,49,"RED",967,"blacksquare.bmp",484,
11/12/2014,10:22,C:\Documents and Settings\lab\Desktop\Tadpole\Stroop Task\stroop 1.csv,48,1,1,82,82.01,encode,57,SPACE,"BLUE",1235,True,158203,32,49,"BLUE",1266,"blacksquare.bmp",486,
11/12/2014,10:22,C:\Documents and Settings\lab\Desktop\Tadpole\Stroop Task\stroop 1.csv,48,1,1,83,83.01,encode,57,SPACE,"RED",1104,True,160004,31,49,"RED",1132,"blacksquare.bmp",485,
11/12/2014,10:22,C:\Documents and Settings\lab\Desktop\Tadpole\Stroop Task\stroop 1.csv,48,1,1,84,84.01,encode,57,SPACE,"RED",859,True,161670,32,49,"RED",883,"blacksquare.bmp",485,
11/12/2014,10:22,C:\Documents and Settings\lab\Desktop\Tadpole\Stroop Task\stroop 1.csv,48,1,1,85,85.01,encode,57,SPACE,"RED",1103,True,163087,32,49,"RED",1132,"blacksquare.bmp",486,
11/12/2014,10:22,C:\Documents and Settings\lab\Desktop\Tadpole\Stroop Task\stroop 1.csv,48,1,1,86,86.01,encode,57,SPACE,"BLUE",1026,True,164754,32,49,"BLUE",1049,"blacksquare.bmp",485,
11/12/2014,10:22,C:\Documents and Settings\lab\Desktop\Tadpole\Stroop Task\stroop 1.csv,48,1,1,87,87.01,encode,57,SPACE,"GREEN",856,True,166337,32,49,"GREEN",882,"blacksquare.bmp",486,
11/12/2014,10:22,C:\Documents and Settings\lab\Desktop\Tadpole\Stroop Task\stroop 1.csv,48,1,1,88,88.01,encode,57,SPACE,"RED",884,True,167754,32,49,"RED",916,"blacksquare.bmp",485,
11/12/2014,10:22,C:\Documents and Settings\lab\Desktop\Tadpole\Stroop Task\stroop 1.csv,48,1,1,89,89.01,encode,57,SPACE,"BLUE",696,True,169204,31,48,"BLUE",717,"blacksquare.bmp",485,
11/12/2014,10:22,C:\Documents and Settings\lab\Desktop\Tadpole\Stroop Task\stroop 1.csv,48,1,1,90,90.01,encode,57,SPACE,"YELLOW",756,True,170454,31,48,"YELLOW",784,"blacksquare.bmp",484,
11/12/2014,10:22,C:\Documents and Settings\lab\Desktop\Tadpole\Stroop Task\stroop 1.csv,48,1,1,91,91.01,encode,57,SPACE,"RED",1028,True,171770,33,49,"RED",1050,"blacksquare.bmp",484,
11/12/2014,10:22,C:\Documents and Settings\lab\Desktop\Tadpole\Stroop Task\stroop 1.csv,48,1,1,92,92.01,encode,57,SPACE,"YELLOW",866,True,173353,33,49,"YELLOW",884,"blacksquare.bmp",484,
11/12/2014,10:22,C:\Documents and Settings\lab\Desktop\Tadpole\Stroop Task\stroop 1.csv,48,1,1,93,93.01,encode,57,SPACE,"GREEN",911,True,174770,33,49,"GREEN",934,"blacksquare.bmp",484,
11/12/2014,10:22,C:\Documents and Settings\lab\Desktop\Tadpole\Stroop Task\stroop 1.csv,48,1,1,94,94.01,encode,57,SPACE,"RED",922,True,176237,32,49,"RED",950,"blacksquare.bmp",485,
11/12/2014,10:22,C:\Documents and Settings\lab\Desktop\Tadpole\Stroop Task\stroop 1.csv,48,1,1,95,95.01,encode,57,SPACE,"YELLOW",1019,True,177721,32,48,"YELLOW",1050,"blacksquare.bmp",485,
11/12/2014,10:22,C:\Documents and Settings\lab\Desktop\Tadpole\Stroop Task\stroop 1.csv,48,1,1,96,96.01,encode,57,SPACE,"BLUE",906,True,179304,32,48,"BLUE",934,"blacksquare.bmp",484,
11/12/2014,10:22,C:\Documents and Settings\lab\Desktop\Tadpole\Stroop Task\stroop 1.csv,48,1,1,97,97.01,encode,57,SPACE,"GREEN",1148,True,180770,33,49,"GREEN",1167,"blacksquare.bmp",485,
11/12/2014,10:22,C:\Documents and Settings\lab\Desktop\Tadpole\Stroop Task\stroop 1.csv,48,1,1,98,98.01,encode,57,SPACE,"YELLOW",934,True,182471,32,48,"YELLOW",951,"blacksquare.bmp",484,
11/12/2014,10:22,C:\Documents and Settings\lab\Desktop\Tadpole\Stroop Task\stroop 1.csv,48,1,1,99,99.01,encode,57,SPACE,"GREEN",1006,True,183954,32,49,"GREEN",1033,"blacksquare.bmp",484,
11/12/2014,10:22,C:\Documents and Settings\lab\Desktop\Tadpole\Stroop Task\stroop 1.csv,48,1,1,100,100.01,encode,57,SPACE,"BLUE",854,True,185520,33,49,"BLUE",884,"blacksquare.bmp",484,
11/12/2014,10:22,C:\Documents and Settings\lab\Desktop\Tadpole\Stroop Task\stroop 1.csv,48,1,1,101,101.01,encode,57,SPACE,"RED",1074,True,186937,33,49,"RED",1100,"blacksquare.bmp",484,
11/12/2014,10:22,C:\Documents and Settings\lab\Desktop\Tadpole\Stroop Task\stroop 1.csv,48,1,1,102,102.01,encode,57,SPACE,"GREEN",958,True,188570,32,49,"GREEN",983,"blacksquare.bmp",485,
11/12/2014,10:22,C:\Documents and Settings\lab\Desktop\Tadpole\Stroop Task\stroop 1.csv,48,1,1,103,103.01,encode,57,SPACE,"BLUE",1213,True,190087,32,49,"BLUE",1233,"blacksquare.bmp",484,
11/12/2014,10:22,C:\Documents and Settings\lab\Desktop\Tadpole\Stroop Task\stroop 1.csv,48,1,1,104,104.01,encode,57,SPACE,"YELLOW",1093,True,191853,33,49,"YELLOW",1117,"blacksquare.bmp",485,
11/12/2014,10:22,C:\Documents and Settings\lab\Desktop\Tadpole\Stroop Task\stroop 1.csv,48,1,1,105,105.01,encode,57,SPACE,"GREEN",776,True,193504,32,49,"GREEN",799,"blacksquare.bmp",485,
11/12/2014,10:22,C:\Documents and Settings\lab\Desktop\Tadpole\Stroop Task\stroop 1.csv,48,1,1,106,106.01,encode,57,SPACE,"YELLOW",879,True,194837,32,49,"YELLOW",900,"blacksquare.bmp",484,
11/12/2014,10:22,C:\Documents and Settings\lab\Desktop\Tadpole\Stroop Task\stroop 1.csv,48,1,1,107,107.01,encode,57,SPACE,"GREEN",988,True,196270,33,49,"GREEN",1017,"blacksquare.bmp",484,
11/12/2014,10:22,C:\Documents and Settings\lab\Desktop\Tadpole\Stroop Task\stroop 1.csv,48,1,1,108,108.01,encode,57,SPACE,"BLUE",1027,True,197820,32,49,"BLUE",1051,"blacksquare.bmp",484,
11/12/2014,10:22,C:\Documents and Settings\lab\Desktop\Tadpole\Stroop Task\stroop 1.csv,48,1,1,109,109.01,encode,57,SPACE,"GREEN",1129,True,199404,32,49,"GREEN",1149,"blacksquare.bmp",486,
11/12/2014,10:22,C:\Documents and Settings\lab\Desktop\Tadpole\Stroop Task\stroop 1.csv,48,1,1,110,110.01,encode,57,SPACE,"BLUE",1130,True,201088,31,48,"BLUE",1150,"blacksquare.bmp",484,
11/12/2014,10:22,C:\Documents and Settings\lab\Desktop\Tadpole\Stroop Task\stroop 1.csv,48,1,1,111,111.01,encode,57,SPACE,"YELLOW",813,True,202770,33,49,"YELLOW",834,"blacksquare.bmp",484,
11/12/2014,10:22,C:\Documents and Settings\lab\Desktop\Tadpole\Stroop Task\stroop 1.csv,48,1,1,112,112.01,encode,57,SPACE,"BLUE",803,True,204137,33,49,"BLUE",833,"blacksquare.bmp",485,
11/12/2014,10:22,C:\Documents and Settings\lab\Desktop\Tadpole\Stroop Task\stroop 1.csv,48,1,1,113,113.01,encode,57,SPACE,"BLUE",778,True,205504,32,49,"BLUE",799,"blacksquare.bmp",486,
11/12/2014,10:22,C:\Documents and Settings\lab\Desktop\Tadpole\Stroop Task\stroop 1.csv,48,1,1,114,114.01,encode,57,SPACE,"END",1201,True,206838,32,49,"END",1217,
