Date,Time,File,Subj,Cond,Block,Trial,Order,task,Resp,Name,Stim,RT,Correct,Started@,LoadTime,TotalInt,Stim 1,Time 1,Stim 2,Time 2,
7/1/2015,10:35,C:\Documents and Settings\lab\Desktop\Tadpole\Stroop Task\stroop 2.csv,182,1,1,1,1.01,encode,57,SPACE,"press spacebar to start practice",16737,True,0,50,67,"press spacebar to start practice",16768,
7/1/2015,10:35,C:\Documents and Settings\lab\Desktop\Tadpole\Stroop Task\stroop 2.csv,182,1,1,2,2.01,encode,57,SPACE,"YELLOW",2012,True,16835,49,66,"YELLOW",2033,"blacksquare.bmp",484,
7/1/2015,10:35,C:\Documents and Settings\lab\Desktop\Tadpole\Stroop Task\stroop 2.csv,182,1,1,3,3.01,encode,57,SPACE,"BLUE",1419,True,19418,32,49,"BLUE",1450,"blacksquare.bmp",485,
7/1/2015,10:35,C:\Documents and Settings\lab\Desktop\Tadpole\Stroop Task\stroop 2.csv,182,1,1,4,4.01,encode,57,SPACE,"RED",1073,True,21402,32,48,"RED",1101,"blacksquare.bmp",484,
7/1/2015,10:35,C:\Documents and Settings\lab\Desktop\Tadpole\Stroop Task\stroop 2.csv,182,1,1,5,5.01,encode,57,SPACE,"GREEN",1268,True,23035,33,49,"GREEN",1300,"blacksquare.bmp",484,
7/1/2015,10:35,C:\Documents and Settings\lab\Desktop\Tadpole\Stroop Task\stroop 2.csv,182,1,1,6,6.01,encode,57,SPACE,"RED",976,True,24868,33,49,"RED",1000,"blacksquare.bmp",485,
7/1/2015,10:35,C:\Documents and Settings\lab\Desktop\Tadpole\Stroop Task\stroop 2.csv,182,1,1,7,7.01,encode,57,SPACE,"BLUE",1144,True,26402,32,48,"BLUE",1167,"blacksquare.bmp",485,
7/1/2015,10:35,C:\Documents and Settings\lab\Desktop\Tadpole\Stroop Task\stroop 2.csv,182,1,1,8,8.01,encode,57,SPACE,"GREEN",873,True,28102,32,49,"GREEN",900,"blacksquare.bmp",484,
7/1/2015,10:35,C:\Documents and Settings\lab\Desktop\Tadpole\Stroop Task\stroop 2.csv,182,1,1,9,9.01,encode,57,SPACE,"BLUE",949,True,29535,33,49,"BLUE",967,"blacksquare.bmp",484,
7/1/2015,10:35,C:\Documents and Settings\lab\Desktop\Tadpole\Stroop Task\stroop 2.csv,182,1,1,10,10.01,encode,57,SPACE,"GREEN",998,True,31035,33,49,"GREEN",1017,"blacksquare.bmp",484,
7/1/2015,10:35,C:\Documents and Settings\lab\Desktop\Tadpole\Stroop Task\stroop 2.csv,182,1,1,11,11.01,encode,57,SPACE,"YELLOW",917,True,32585,32,49,"YELLOW",934,"blacksquare.bmp",484,
7/1/2015,10:35,C:\Documents and Settings\lab\Desktop\Tadpole\Stroop Task\stroop 2.csv,182,1,1,12,12.01,encode,57,SPACE,"END",38364,True,34052,32,49,"END",38384,"blacksquare.bmp",484,
7/1/2015,10:35,C:\Documents and Settings\lab\Desktop\Tadpole\Stroop Task\stroop 2.csv,182,1,1,13,13.01,encode,57,SPACE,"press spacebar to start task",1227,True,72969,32,49,"press spacebar to start task",1234,
7/1/2015,10:35,C:\Documents and Settings\lab\Desktop\Tadpole\Stroop Task\stroop 2.csv,182,1,1,14,14.01,encode,57,SPACE,"GREEN",1198,True,74252,32,49,"GREEN",1217,"blacksquare.bmp",101,
7/1/2015,10:35,C:\Documents and Settings\lab\Desktop\Tadpole\Stroop Task\stroop 2.csv,182,1,1,15,15.01,encode,57,SPACE,"BLUE",1269,True,75619,33,49,"BLUE",1300,"blacksquare.bmp",101,
7/1/2015,10:35,C:\Documents and Settings\lab\Desktop\Tadpole\Stroop Task\stroop 2.csv,182,1,1,16,16.01,encode,57,SPACE,"BLUE",1016,True,77069,33,49,"BLUE",1034,"blacksquare.bmp",100,
7/1/2015,10:35,C:\Documents and Settings\lab\Desktop\Tadpole\Stroop Task\stroop 2.csv,182,1,1,17,17.01,encode,57,SPACE,"YELLOW",1166,True,78252,32,49,"YELLOW",1184,"blacksquare.bmp",101,
7/1/2015,10:35,C:\Documents and Settings\lab\Desktop\Tadpole\Stroop Task\stroop 2.csv,182,1,1,18,18.01,encode,57,SPACE,"BLUE",997,True,79586,32,49,"BLUE",1017,"blacksquare.bmp",101,
7/1/2015,10:35,C:\Documents and Settings\lab\Desktop\Tadpole\Stroop Task\stroop 2.csv,182,1,1,19,19.01,encode,57,SPACE,"BLUE",949,True,80753,31,48,"BLUE",967,"blacksquare.bmp",101,
7/1/2015,10:35,C:\Documents and Settings\lab\Desktop\Tadpole\Stroop Task\stroop 2.csv,182,1,1,20,20.01,encode,57,SPACE,"RED",1269,True,81869,33,49,"RED",1300,"blacksquare.bmp",101,
7/1/2015,10:35,C:\Documents and Settings\lab\Desktop\Tadpole\Stroop Task\stroop 2.csv,182,1,1,21,21.01,encode,57,SPACE,"RED",945,True,83319,33,49,"RED",967,"blacksquare.bmp",101,
7/1/2015,10:35,C:\Documents and Settings\lab\Desktop\Tadpole\Stroop Task\stroop 2.csv,182,1,1,22,22.01,encode,57,SPACE,"RED",1017,True,84436,32,49,"RED",1033,"blacksquare.bmp",101,
7/1/2015,10:35,C:\Documents and Settings\lab\Desktop\Tadpole\Stroop Task\stroop 2.csv,182,1,1,23,23.01,encode,57,SPACE,"RED",903,True,85619,33,49,"RED",934,"blacksquare.bmp",100,
7/1/2015,10:35,C:\Documents and Settings\lab\Desktop\Tadpole\Stroop Task\stroop 2.csv,182,1,1,24,24.01,encode,57,SPACE,"BLUE",1010,True,86702,33,49,"BLUE",1034,"blacksquare.bmp",101,
7/1/2015,10:35,C:\Documents and Settings\lab\Desktop\Tadpole\Stroop Task\stroop 2.csv,182,1,1,25,25.01,encode,57,SPACE,"YELLOW",959,True,87886,32,49,"YELLOW",983,"blacksquare.bmp",102,
7/1/2015,10:35,C:\Documents and Settings\lab\Desktop\Tadpole\Stroop Task\stroop 2.csv,182,1,1,26,26.01,encode,57,SPACE,"GREEN",942,True,89020,32,49,"GREEN",966,"blacksquare.bmp",101,
7/1/2015,10:35,C:\Documents and Settings\lab\Desktop\Tadpole\Stroop Task\stroop 2.csv,182,1,1,27,27.01,encode,57,SPACE,"YELLOW",1024,True,90136,32,49,"YELLOW",1050,"blacksquare.bmp",101,
7/1/2015,10:35,C:\Documents and Settings\lab\Desktop\Tadpole\Stroop Task\stroop 2.csv,182,1,1,28,28.01,encode,57,SPACE,"BLUE",925,True,91336,32,49,"BLUE",950,"blacksquare.bmp",101,
7/1/2015,10:35,C:\Documents and Settings\lab\Desktop\Tadpole\Stroop Task\stroop 2.csv,182,1,1,29,29.01,encode,57,SPACE,"YELLOW",974,True,92436,32,49,"YELLOW",1000,"blacksquare.bmp",101,
7/1/2015,10:35,C:\Documents and Settings\lab\Desktop\Tadpole\Stroop Task\stroop 2.csv,182,1,1,30,30.01,encode,57,SPACE,"BLUE",1054,True,93586,32,49,"BLUE",1083,"blacksquare.bmp",101,
7/1/2015,10:35,C:\Documents and Settings\lab\Desktop\Tadpole\Stroop Task\stroop 2.csv,182,1,1,31,31.01,encode,57,SPACE,"GREEN",1010,True,94819,33,49,"GREEN",1034,"blacksquare.bmp",101,
7/1/2015,10:35,C:\Documents and Settings\lab\Desktop\Tadpole\Stroop Task\stroop 2.csv,182,1,1,32,32.01,encode,57,SPACE,"RED",911,True,96003,32,49,"RED",933,"blacksquare.bmp",101,
7/1/2015,10:35,C:\Documents and Settings\lab\Desktop\Tadpole\Stroop Task\stroop 2.csv,182,1,1,33,33.01,encode,57,SPACE,"YELLOW",970,True,97086,32,49,"YELLOW",1000,"blacksquare.bmp",101,
7/1/2015,10:35,C:\Documents and Settings\lab\Desktop\Tadpole\Stroop Task\stroop 2.csv,182,1,1,34,34.01,encode,57,SPACE,"RED",898,True,98236,33,49,"RED",916,"blacksquare.bmp",102,
7/1/2015,10:35,C:\Documents and Settings\lab\Desktop\Tadpole\Stroop Task\stroop 2.csv,182,1,1,35,35.01,encode,57,SPACE,"YELLOW",964,True,99303,32,49,"YELLOW",983,"blacksquare.bmp",102,
7/1/2015,10:35,C:\Documents and Settings\lab\Desktop\Tadpole\Stroop Task\stroop 2.csv,182,1,1,36,36.01,encode,57,SPACE,"BLUE",1084,True,100437,31,48,"BLUE",1100,"blacksquare.bmp",102,
7/1/2015,10:35,C:\Documents and Settings\lab\Desktop\Tadpole\Stroop Task\stroop 2.csv,182,1,1,37,37.01,encode,57,SPACE,"BLUE",895,True,101687,31,49,"BLUE",916,"blacksquare.bmp",101,
7/1/2015,10:35,C:\Documents and Settings\lab\Desktop\Tadpole\Stroop Task\stroop 2.csv,182,1,1,38,38.01,encode,57,SPACE,"YELLOW",1010,True,102753,32,49,"YELLOW",1033,"blacksquare.bmp",102,
7/1/2015,10:35,C:\Documents and Settings\lab\Desktop\Tadpole\Stroop Task\stroop 2.csv,182,1,1,39,39.01,encode,57,SPACE,"YELLOW",1120,True,103937,31,49,"YELLOW",1149,"blacksquare.bmp",101,
7/1/2015,10:35,C:\Documents and Settings\lab\Desktop\Tadpole\Stroop Task\stroop 2.csv,182,1,1,40,40.01,encode,57,SPACE,"GREEN",1066,True,105236,33,49,"GREEN",1083,"blacksquare.bmp",102,
7/1/2015,10:35,C:\Documents and Settings\lab\Desktop\Tadpole\Stroop Task\stroop 2.csv,182,1,1,41,41.01,encode,57,SPACE,"YELLOW",1268,True,106470,32,49,"YELLOW",1300,"blacksquare.bmp",101,
7/1/2015,10:35,C:\Documents and Settings\lab\Desktop\Tadpole\Stroop Task\stroop 2.csv,182,1,1,42,42.01,encode,57,SPACE,"BLUE",1128,True,107920,31,49,"BLUE",1149,"blacksquare.bmp",102,
7/1/2015,10:35,C:\Documents and Settings\lab\Desktop\Tadpole\Stroop Task\stroop 2.csv,182,1,1,43,43.01,encode,57,SPACE,"GREEN",1025,True,109220,32,49,"GREEN",1050,"blacksquare.bmp",101,
7/1/2015,10:35,C:\Documents and Settings\lab\Desktop\Tadpole\Stroop Task\stroop 2.csv,182,1,1,44,44.01,encode,57,SPACE,"RED",951,True,110420,32,49,"RED",983,"blacksquare.bmp",101,
7/1/2015,10:35,C:\Documents and Settings\lab\Desktop\Tadpole\Stroop Task\stroop 2.csv,182,1,1,45,45.01,encode,57,SPACE,"GREEN",880,True,111553,32,49,"GREEN",900,"blacksquare.bmp",101,
7/1/2015,10:35,C:\Documents and Settings\lab\Desktop\Tadpole\Stroop Task\stroop 2.csv,182,1,1,46,46.01,encode,57,SPACE,"YELLOW",971,True,112603,32,49,"YELLOW",1000,"blacksquare.bmp",101,
7/1/2015,10:35,C:\Documents and Settings\lab\Desktop\Tadpole\Stroop Task\stroop 2.csv,182,1,1,47,47.01,encode,57,SPACE,"RED",851,True,113753,32,49,"RED",866,"blacksquare.bmp",102,
7/1/2015,10:35,C:\Documents and Settings\lab\Desktop\Tadpole\Stroop Task\stroop 2.csv,182,1,1,48,48.01,encode,57,SPACE,"GREEN",871,True,114770,32,49,"GREEN",900,"blacksquare.bmp",100,
7/1/2015,10:35,C:\Documents and Settings\lab\Desktop\Tadpole\Stroop Task\stroop 2.csv,182,1,1,49,49.01,encode,57,SPACE,"YELLOW",954,True,115819,33,49,"YELLOW",984,"blacksquare.bmp",101,
7/1/2015,10:35,C:\Documents and Settings\lab\Desktop\Tadpole\Stroop Task\stroop 2.csv,182,1,1,50,50.01,encode,57,SPACE,"RED",962,True,116953,33,49,"RED",984,"blacksquare.bmp",100,
7/1/2015,10:35,C:\Documents and Settings\lab\Desktop\Tadpole\Stroop Task\stroop 2.csv,182,1,1,51,51.01,encode,57,SPACE,"YELLOW",1219,True,118086,32,49,"YELLOW",1250,"blacksquare.bmp",101,
7/1/2015,10:35,C:\Documents and Settings\lab\Desktop\Tadpole\Stroop Task\stroop 2.csv,182,1,1,52,52.01,encode,57,SPACE,"GREEN",864,True,119486,33,49,"GREEN",884,"blacksquare.bmp",101,
7/1/2015,10:35,C:\Documents and Settings\lab\Desktop\Tadpole\Stroop Task\stroop 2.csv,182,1,1,53,53.01,encode,57,SPACE,"RED",900,True,120520,32,49,"RED",917,"blacksquare.bmp",100,
7/1/2015,10:35,C:\Documents and Settings\lab\Desktop\Tadpole\Stroop Task\stroop 2.csv,182,1,1,54,54.01,encode,57,SPACE,"RED",887,True,121586,32,49,"RED",917,"blacksquare.bmp",101,
7/1/2015,10:35,C:\Documents and Settings\lab\Desktop\Tadpole\Stroop Task\stroop 2.csv,182,1,1,55,55.01,encode,57,SPACE,"GREEN",946,True,122653,33,49,"GREEN",967,"blacksquare.bmp",101,
7/1/2015,10:35,C:\Documents and Settings\lab\Desktop\Tadpole\Stroop Task\stroop 2.csv,182,1,1,56,56.01,encode,57,SPACE,"BLUE",881,True,123770,32,49,"BLUE",900,"blacksquare.bmp",100,
7/1/2015,10:35,C:\Documents and Settings\lab\Desktop\Tadpole\Stroop Task\stroop 2.csv,182,1,1,57,57.01,encode,57,SPACE,"RED",942,True,124819,33,49,"RED",967,"blacksquare.bmp",102,
7/1/2015,10:35,C:\Documents and Settings\lab\Desktop\Tadpole\Stroop Task\stroop 2.csv,182,1,1,58,58.01,encode,57,SPACE,"GREEN",958,True,125937,32,49,"GREEN",983,"blacksquare.bmp",100,
7/1/2015,10:35,C:\Documents and Settings\lab\Desktop\Tadpole\Stroop Task\stroop 2.csv,182,1,1,59,59.01,encode,57,SPACE,"RED",1655,True,127069,33,49,"RED",1684,"blacksquare.bmp",101,
7/1/2015,10:35,C:\Documents and Settings\lab\Desktop\Tadpole\Stroop Task\stroop 2.csv,182,1,1,60,60.01,encode,57,SPACE,"YELLOW",1497,True,128903,33,49,"YELLOW",1517,"blacksquare.bmp",101,
7/1/2015,10:35,C:\Documents and Settings\lab\Desktop\Tadpole\Stroop Task\stroop 2.csv,182,1,1,61,61.01,encode,57,SPACE,"YELLOW",1229,True,130570,32,48,"YELLOW",1251,"blacksquare.bmp",101,
7/1/2015,10:35,C:\Documents and Settings\lab\Desktop\Tadpole\Stroop Task\stroop 2.csv,182,1,1,62,62.01,encode,57,SPACE,"GREEN",1097,True,131970,32,49,"GREEN",1117,"blacksquare.bmp",100,
7/1/2015,10:35,C:\Documents and Settings\lab\Desktop\Tadpole\Stroop Task\stroop 2.csv,182,1,1,63,63.01,encode,57,SPACE,"YELLOW",1069,True,133236,33,49,"YELLOW",1101,"blacksquare.bmp",100,
7/1/2015,10:35,C:\Documents and Settings\lab\Desktop\Tadpole\Stroop Task\stroop 2.csv,182,1,1,64,64.01,encode,57,SPACE,"GREEN",1136,True,134486,33,49,"GREEN",1167,"blacksquare.bmp",102,
7/1/2015,10:35,C:\Documents and Settings\lab\Desktop\Tadpole\Stroop Task\stroop 2.csv,182,1,1,65,65.01,encode,57,SPACE,"YELLOW",1024,True,135804,31,48,"YELLOW",1051,"blacksquare.bmp",100,
7/1/2015,10:35,C:\Documents and Settings\lab\Desktop\Tadpole\Stroop Task\stroop 2.csv,182,1,1,66,66.01,encode,57,SPACE,"GREEN",1021,True,137003,32,49,"GREEN",1051,"blacksquare.bmp",100,
7/1/2015,10:35,C:\Documents and Settings\lab\Desktop\Tadpole\Stroop Task\stroop 2.csv,182,1,1,67,67.01,encode,57,SPACE,"BLUE",955,True,138203,33,49,"BLUE",984,"blacksquare.bmp",101,
7/1/2015,10:35,C:\Documents and Settings\lab\Desktop\Tadpole\Stroop Task\stroop 2.csv,182,1,1,68,68.01,encode,57,SPACE,"GREEN",1234,True,139337,32,49,"GREEN",1250,"blacksquare.bmp",100,
7/1/2015,10:35,C:\Documents and Settings\lab\Desktop\Tadpole\Stroop Task\stroop 2.csv,182,1,1,69,69.01,encode,57,SPACE,"GREEN",1025,True,140736,33,49,"GREEN",1051,"blacksquare.bmp",101,
7/1/2015,10:35,C:\Documents and Settings\lab\Desktop\Tadpole\Stroop Task\stroop 2.csv,182,1,1,70,70.01,encode,57,SPACE,"YELLOW",1132,True,141937,32,49,"YELLOW",1150,"blacksquare.bmp",100,
7/1/2015,10:35,C:\Documents and Settings\lab\Desktop\Tadpole\Stroop Task\stroop 2.csv,182,1,1,71,71.01,encode,57,SPACE,"RED",1447,True,143236,33,49,"RED",1467,"blacksquare.bmp",102,
7/1/2015,10:35,C:\Documents and Settings\lab\Desktop\Tadpole\Stroop Task\stroop 2.csv,182,1,1,72,72.01,encode,57,SPACE,"YELLOW",1098,True,144854,32,49,"YELLOW",1116,"blacksquare.bmp",101,
7/1/2015,10:35,C:\Documents and Settings\lab\Desktop\Tadpole\Stroop Task\stroop 2.csv,182,1,1,73,73.01,encode,57,SPACE,"GREEN",1205,True,146120,33,49,"GREEN",1234,"blacksquare.bmp",101,
7/1/2015,10:35,C:\Documents and Settings\lab\Desktop\Tadpole\Stroop Task\stroop 2.csv,182,1,1,74,74.01,encode,57,SPACE,"YELLOW",1243,True,147504,31,48,"YELLOW",1267,"blacksquare.bmp",101,
7/1/2015,10:35,C:\Documents and Settings\lab\Desktop\Tadpole\Stroop Task\stroop 2.csv,182,1,1,75,75.01,encode,57,SPACE,"BLUE",1040,True,148920,32,49,"BLUE",1066,"blacksquare.bmp",102,
7/1/2015,10:35,C:\Documents and Settings\lab\Desktop\Tadpole\Stroop Task\stroop 2.csv,182,1,1,76,76.01,encode,57,SPACE,"BLUE",1005,True,150137,32,49,"BLUE",1033,"blacksquare.bmp",101,
7/1/2015,10:35,C:\Documents and Settings\lab\Desktop\Tadpole\Stroop Task\stroop 2.csv,182,1,1,77,77.01,encode,57,SPACE,"GREEN",979,True,151320,33,49,"GREEN",1000,"blacksquare.bmp",101,
7/1/2015,10:35,C:\Documents and Settings\lab\Desktop\Tadpole\Stroop Task\stroop 2.csv,182,1,1,78,78.01,encode,57,SPACE,"RED",1225,True,152470,32,49,"RED",1250,"blacksquare.bmp",101,
7/1/2015,10:35,C:\Documents and Settings\lab\Desktop\Tadpole\Stroop Task\stroop 2.csv,182,1,1,79,79.01,encode,57,SPACE,"YELLOW",975,True,153870,33,49,"YELLOW",1000,"blacksquare.bmp",102,
7/1/2015,10:35,C:\Documents and Settings\lab\Desktop\Tadpole\Stroop Task\stroop 2.csv,182,1,1,80,80.01,encode,57,SPACE,"BLUE",1222,True,155021,32,48,"BLUE",1250,"blacksquare.bmp",101,
7/1/2015,10:35,C:\Documents and Settings\lab\Desktop\Tadpole\Stroop Task\stroop 2.csv,182,1,1,81,81.01,encode,57,SPACE,"RED",1180,True,156420,32,49,"RED",1200,"blacksquare.bmp",102,
7/1/2015,10:35,C:\Documents and Settings\lab\Desktop\Tadpole\Stroop Task\stroop 2.csv,182,1,1,82,82.01,encode,57,SPACE,"RED",1642,True,157771,32,48,"RED",1667,"blacksquare.bmp",101,
7/1/2015,10:35,C:\Documents and Settings\lab\Desktop\Tadpole\Stroop Task\stroop 2.csv,182,1,1,83,83.01,encode,0,,"",0,False,159587,32,49,"BLUE",-161468,"blacksquare.bmp",0,
