Date,Time,File,Subj,Cond,Block,Trial,Order,task,Resp,Name,Stim,RT,Correct,Started@,LoadTime,TotalInt,Stim 1,Time 1,Stim 2,Time 2,
7/21/2014,15:10,C:\Documents and Settings\lab\Desktop\Tadpole\Stroop Task\stroop 1.csv,9,1,1,1,1.01,encode,57,SPACE,"press spacebar to start practice",3266,True,0,133,150,"press spacebar to start practice",3301,
7/21/2014,15:10,C:\Documents and Settings\lab\Desktop\Tadpole\Stroop Task\stroop 1.csv,9,1,1,2,2.01,encode,57,SPACE,"YELLOW",1338,True,3451,32,49,"YELLOW",1367,"blacksquare.bmp",501,
7/21/2014,15:10,C:\Documents and Settings\lab\Desktop\Tadpole\Stroop Task\stroop 1.csv,9,1,1,3,3.01,encode,57,SPACE,"BLUE",1286,True,5368,32,49,"BLUE",1316,"blacksquare.bmp",484,
7/21/2014,15:10,C:\Documents and Settings\lab\Desktop\Tadpole\Stroop Task\stroop 1.csv,9,1,1,4,4.01,encode,57,SPACE,"RED",1084,True,7217,33,49,"RED",1101,"blacksquare.bmp",501,
7/21/2014,15:10,C:\Documents and Settings\lab\Desktop\Tadpole\Stroop Task\stroop 1.csv,9,1,1,5,5.01,encode,57,SPACE,"GREEN",1113,True,8868,32,49,"GREEN",1133,"blacksquare.bmp",485,
7/21/2014,15:10,C:\Documents and Settings\lab\Desktop\Tadpole\Stroop Task\stroop 1.csv,9,1,1,6,6.01,encode,57,SPACE,"RED",1013,True,10535,32,49,"RED",1033,"blacksquare.bmp",484,
7/21/2014,15:10,C:\Documents and Settings\lab\Desktop\Tadpole\Stroop Task\stroop 1.csv,9,1,1,7,7.01,encode,57,SPACE,"BLUE",967,True,12101,32,49,"BLUE",983,"blacksquare.bmp",485,
7/21/2014,15:10,C:\Documents and Settings\lab\Desktop\Tadpole\Stroop Task\stroop 1.csv,9,1,1,8,8.01,encode,57,SPACE,"GREEN",1370,True,13618,32,49,"GREEN",1400,"blacksquare.bmp",501,
7/21/2014,15:10,C:\Documents and Settings\lab\Desktop\Tadpole\Stroop Task\stroop 1.csv,9,1,1,9,9.01,encode,57,SPACE,"BLUE",1628,True,15568,32,49,"BLUE",1650,"blacksquare.bmp",484,
7/21/2014,15:10,C:\Documents and Settings\lab\Desktop\Tadpole\Stroop Task\stroop 1.csv,9,1,1,10,10.01,encode,57,SPACE,"GREEN",1140,True,17751,33,49,"GREEN",1166,"blacksquare.bmp",486,
7/21/2014,15:10,C:\Documents and Settings\lab\Desktop\Tadpole\Stroop Task\stroop 1.csv,9,1,1,11,11.01,encode,57,SPACE,"YELLOW",1279,True,19452,32,49,"YELLOW",1299,"blacksquare.bmp",485,
7/21/2014,15:10,C:\Documents and Settings\lab\Desktop\Tadpole\Stroop Task\stroop 1.csv,9,1,1,12,12.01,encode,57,SPACE,"END",13330,True,21285,32,49,"END",13350,"blacksquare.bmp",484,
7/21/2014,15:10,C:\Documents and Settings\lab\Desktop\Tadpole\Stroop Task\stroop 1.csv,9,1,1,13,13.01,encode,57,SPACE,"press spacebar to start task",629,True,35168,33,49,"press spacebar to start task",635,
7/21/2014,15:10,C:\Documents and Settings\lab\Desktop\Tadpole\Stroop Task\stroop 1.csv,9,1,1,14,14.01,encode,57,SPACE,"YELLOW",1209,True,35852,32,49,"YELLOW",1233,"blacksquare.bmp",485,
7/21/2014,15:10,C:\Documents and Settings\lab\Desktop\Tadpole\Stroop Task\stroop 1.csv,9,1,1,15,15.01,encode,57,SPACE,"RED",1234,True,37619,32,49,"RED",1250,"blacksquare.bmp",500,
7/21/2014,15:10,C:\Documents and Settings\lab\Desktop\Tadpole\Stroop Task\stroop 1.csv,9,1,1,16,16.01,encode,57,SPACE,"GREEN",1082,True,39418,33,49,"GREEN",1100,"blacksquare.bmp",485,
7/21/2014,15:10,C:\Documents and Settings\lab\Desktop\Tadpole\Stroop Task\stroop 1.csv,9,1,1,17,17.01,encode,57,SPACE,"RED",1032,True,41052,32,49,"RED",1050,"blacksquare.bmp",484,
7/21/2014,15:10,C:\Documents and Settings\lab\Desktop\Tadpole\Stroop Task\stroop 1.csv,9,1,1,18,18.01,encode,57,SPACE,"YELLOW",1025,True,42635,33,49,"YELLOW",1050,"blacksquare.bmp",484,
7/21/2014,15:10,C:\Documents and Settings\lab\Desktop\Tadpole\Stroop Task\stroop 1.csv,9,1,1,19,19.01,encode,57,SPACE,"BLUE",1009,True,44218,33,49,"BLUE",1033,"blacksquare.bmp",486,
7/21/2014,15:10,C:\Documents and Settings\lab\Desktop\Tadpole\Stroop Task\stroop 1.csv,9,1,1,20,20.01,encode,57,SPACE,"YELLOW",994,True,45786,32,48,"YELLOW",1017,"blacksquare.bmp",484,
7/21/2014,15:10,C:\Documents and Settings\lab\Desktop\Tadpole\Stroop Task\stroop 1.csv,9,1,1,21,21.01,encode,57,SPACE,"RED",1202,True,47335,33,49,"RED",1234,"blacksquare.bmp",484,
7/21/2014,15:10,C:\Documents and Settings\lab\Desktop\Tadpole\Stroop Task\stroop 1.csv,9,1,1,22,22.01,encode,57,SPACE,"YELLOW",1059,True,49102,32,49,"YELLOW",1083,"blacksquare.bmp",485,
7/21/2014,15:10,C:\Documents and Settings\lab\Desktop\Tadpole\Stroop Task\stroop 1.csv,9,1,1,23,23.01,encode,57,SPACE,"GREEN",1083,True,50719,32,48,"GREEN",1101,"blacksquare.bmp",484,
7/21/2014,15:10,C:\Documents and Settings\lab\Desktop\Tadpole\Stroop Task\stroop 1.csv,9,1,1,24,24.01,encode,57,SPACE,"GREEN",1065,True,52352,32,49,"GREEN",1083,"blacksquare.bmp",485,
7/21/2014,15:10,C:\Documents and Settings\lab\Desktop\Tadpole\Stroop Task\stroop 1.csv,9,1,1,25,25.01,encode,57,SPACE,"YELLOW",1047,True,53969,32,49,"YELLOW",1066,"blacksquare.bmp",485,
7/21/2014,15:10,C:\Documents and Settings\lab\Desktop\Tadpole\Stroop Task\stroop 1.csv,9,1,1,26,26.01,encode,57,SPACE,"GREEN",1119,True,55569,32,49,"GREEN",1150,"blacksquare.bmp",484,
7/21/2014,15:10,C:\Documents and Settings\lab\Desktop\Tadpole\Stroop Task\stroop 1.csv,9,1,1,27,27.01,encode,57,SPACE,"GREEN",963,True,57252,33,49,"GREEN",984,"blacksquare.bmp",501,
7/21/2014,15:10,C:\Documents and Settings\lab\Desktop\Tadpole\Stroop Task\stroop 1.csv,9,1,1,28,28.01,encode,57,SPACE,"RED",870,True,58786,32,48,"RED",901,"blacksquare.bmp",501,
7/21/2014,15:10,C:\Documents and Settings\lab\Desktop\Tadpole\Stroop Task\stroop 1.csv,9,1,1,29,29.01,encode,57,SPACE,"BLUE",1634,True,60236,32,49,"BLUE",1667,"blacksquare.bmp",501,
7/21/2014,15:10,C:\Documents and Settings\lab\Desktop\Tadpole\Stroop Task\stroop 1.csv,9,1,1,30,30.01,encode,57,SPACE,"YELLOW",1010,True,62453,32,48,"YELLOW",1034,"blacksquare.bmp",484,
7/21/2014,15:10,C:\Documents and Settings\lab\Desktop\Tadpole\Stroop Task\stroop 1.csv,9,1,1,31,31.01,encode,57,SPACE,"RED",938,True,64019,32,49,"RED",967,"blacksquare.bmp",484,
7/21/2014,15:10,C:\Documents and Settings\lab\Desktop\Tadpole\Stroop Task\stroop 1.csv,9,1,1,32,32.01,encode,57,SPACE,"GREEN",910,True,65519,32,49,"GREEN",933,"blacksquare.bmp",485,
7/21/2014,15:10,C:\Documents and Settings\lab\Desktop\Tadpole\Stroop Task\stroop 1.csv,9,1,1,33,33.01,encode,57,SPACE,"GREEN",898,True,66986,32,49,"GREEN",917,"blacksquare.bmp",501,
7/21/2014,15:10,C:\Documents and Settings\lab\Desktop\Tadpole\Stroop Task\stroop 1.csv,9,1,1,34,34.01,encode,57,SPACE,"YELLOW",1121,True,68453,32,48,"YELLOW",1151,"blacksquare.bmp",501,
7/21/2014,15:10,C:\Documents and Settings\lab\Desktop\Tadpole\Stroop Task\stroop 1.csv,9,1,1,35,35.01,encode,57,SPACE,"YELLOW",890,True,70153,32,49,"YELLOW",916,"blacksquare.bmp",485,
7/21/2014,15:10,C:\Documents and Settings\lab\Desktop\Tadpole\Stroop Task\stroop 1.csv,9,1,1,36,36.01,encode,57,SPACE,"RED",1425,True,71603,31,49,"RED",1449,"blacksquare.bmp",485,
7/21/2014,15:10,C:\Documents and Settings\lab\Desktop\Tadpole\Stroop Task\stroop 1.csv,9,1,1,37,37.01,encode,57,SPACE,"GREEN",945,True,73586,32,49,"GREEN",966,"blacksquare.bmp",485,
7/21/2014,15:10,C:\Documents and Settings\lab\Desktop\Tadpole\Stroop Task\stroop 1.csv,9,1,1,38,38.01,encode,57,SPACE,"RED",972,True,75086,33,49,"RED",1000,"blacksquare.bmp",485,
7/21/2014,15:10,C:\Documents and Settings\lab\Desktop\Tadpole\Stroop Task\stroop 1.csv,9,1,1,39,39.01,encode,57,SPACE,"GREEN",983,True,76620,32,48,"GREEN",1000,"blacksquare.bmp",485,
7/21/2014,15:10,C:\Documents and Settings\lab\Desktop\Tadpole\Stroop Task\stroop 1.csv,9,1,1,40,40.01,encode,57,SPACE,"YELLOW",1024,True,78153,32,49,"YELLOW",1049,"blacksquare.bmp",485,
7/21/2014,15:10,C:\Documents and Settings\lab\Desktop\Tadpole\Stroop Task\stroop 1.csv,9,1,1,41,41.01,encode,57,SPACE,"GREEN",793,True,79736,32,49,"GREEN",817,"blacksquare.bmp",501,
7/21/2014,15:10,C:\Documents and Settings\lab\Desktop\Tadpole\Stroop Task\stroop 1.csv,9,1,1,42,42.01,encode,57,SPACE,"BLUE",809,True,81103,32,49,"BLUE",833,"blacksquare.bmp",484,
7/21/2014,15:10,C:\Documents and Settings\lab\Desktop\Tadpole\Stroop Task\stroop 1.csv,9,1,1,43,43.01,encode,57,SPACE,"YELLOW",842,True,82469,32,49,"YELLOW",867,"blacksquare.bmp",485,
7/21/2014,15:10,C:\Documents and Settings\lab\Desktop\Tadpole\Stroop Task\stroop 1.csv,9,1,1,44,44.01,encode,57,SPACE,"YELLOW",994,True,83870,32,48,"YELLOW",1017,"blacksquare.bmp",484,
7/21/2014,15:10,C:\Documents and Settings\lab\Desktop\Tadpole\Stroop Task\stroop 1.csv,9,1,1,45,45.01,encode,57,SPACE,"RED",1163,True,85419,33,49,"RED",1184,"blacksquare.bmp",484,
7/21/2014,15:10,C:\Documents and Settings\lab\Desktop\Tadpole\Stroop Task\stroop 1.csv,9,1,1,46,46.01,encode,57,SPACE,"GREEN",982,True,87136,32,49,"GREEN",1000,"blacksquare.bmp",484,
7/21/2014,15:10,C:\Documents and Settings\lab\Desktop\Tadpole\Stroop Task\stroop 1.csv,9,1,1,47,47.01,encode,57,SPACE,"YELLOW",1065,True,88669,33,49,"YELLOW",1084,"blacksquare.bmp",485,
7/21/2014,15:10,C:\Documents and Settings\lab\Desktop\Tadpole\Stroop Task\stroop 1.csv,9,1,1,48,48.01,encode,57,SPACE,"YELLOW",887,True,90287,32,48,"YELLOW",916,"blacksquare.bmp",486,
7/21/2014,15:10,C:\Documents and Settings\lab\Desktop\Tadpole\Stroop Task\stroop 1.csv,9,1,1,49,49.01,encode,57,SPACE,"RED",996,True,91737,32,49,"RED",1016,"blacksquare.bmp",485,
7/21/2014,15:10,C:\Documents and Settings\lab\Desktop\Tadpole\Stroop Task\stroop 1.csv,9,1,1,50,50.01,encode,57,SPACE,"BLUE",917,True,93287,32,48,"BLUE",934,"blacksquare.bmp",501,
7/21/2014,15:10,C:\Documents and Settings\lab\Desktop\Tadpole\Stroop Task\stroop 1.csv,9,1,1,51,51.01,encode,57,SPACE,"BLUE",857,True,94770,32,49,"BLUE",883,"blacksquare.bmp",485,
7/21/2014,15:10,C:\Documents and Settings\lab\Desktop\Tadpole\Stroop Task\stroop 1.csv,9,1,1,52,52.01,encode,57,SPACE,"YELLOW",895,True,96187,31,49,"YELLOW",916,"blacksquare.bmp",484,
7/21/2014,15:10,C:\Documents and Settings\lab\Desktop\Tadpole\Stroop Task\stroop 1.csv,9,1,1,53,53.01,encode,57,SPACE,"BLUE",1350,True,97636,32,49,"BLUE",1367,"blacksquare.bmp",485,
7/21/2014,15:10,C:\Documents and Settings\lab\Desktop\Tadpole\Stroop Task\stroop 1.csv,9,1,1,54,54.01,encode,57,SPACE,"BLUE",1138,True,99537,32,48,"BLUE",1167,"blacksquare.bmp",485,
7/21/2014,15:10,C:\Documents and Settings\lab\Desktop\Tadpole\Stroop Task\stroop 1.csv,9,1,1,55,55.01,encode,57,SPACE,"RED",972,True,101237,32,49,"RED",1000,"blacksquare.bmp",484,
7/21/2014,15:10,C:\Documents and Settings\lab\Desktop\Tadpole\Stroop Task\stroop 1.csv,9,1,1,56,56.01,encode,57,SPACE,"BLUE",1439,True,102770,32,49,"BLUE",1467,"blacksquare.bmp",484,
7/21/2014,15:10,C:\Documents and Settings\lab\Desktop\Tadpole\Stroop Task\stroop 1.csv,9,1,1,57,57.01,encode,57,SPACE,"RED",847,True,104770,32,49,"RED",867,"blacksquare.bmp",501,
7/21/2014,15:10,C:\Documents and Settings\lab\Desktop\Tadpole\Stroop Task\stroop 1.csv,9,1,1,58,58.01,encode,57,SPACE,"BLUE",885,True,106187,32,49,"BLUE",916,"blacksquare.bmp",485,
7/21/2014,15:10,C:\Documents and Settings\lab\Desktop\Tadpole\Stroop Task\stroop 1.csv,9,1,1,59,59.01,encode,57,SPACE,"YELLOW",883,True,107637,32,49,"YELLOW",899,"blacksquare.bmp",485,
7/21/2014,15:10,C:\Documents and Settings\lab\Desktop\Tadpole\Stroop Task\stroop 1.csv,9,1,1,60,60.01,encode,57,SPACE,"BLUE",1089,True,109070,32,49,"BLUE",1117,"blacksquare.bmp",484,
7/21/2014,15:10,C:\Documents and Settings\lab\Desktop\Tadpole\Stroop Task\stroop 1.csv,9,1,1,61,61.01,encode,57,SPACE,"RED",1206,True,110720,32,49,"RED",1233,"blacksquare.bmp",485,
7/21/2014,15:10,C:\Documents and Settings\lab\Desktop\Tadpole\Stroop Task\stroop 1.csv,9,1,1,62,62.01,encode,57,SPACE,"GREEN",1079,True,112487,32,49,"GREEN",1100,"blacksquare.bmp",485,
7/21/2014,15:10,C:\Documents and Settings\lab\Desktop\Tadpole\Stroop Task\stroop 1.csv,9,1,1,63,63.01,encode,57,SPACE,"RED",1350,True,114121,32,48,"RED",1367,"blacksquare.bmp",484,
7/21/2014,15:10,C:\Documents and Settings\lab\Desktop\Tadpole\Stroop Task\stroop 1.csv,9,1,1,64,64.01,encode,57,SPACE,"YELLOW",1057,True,116020,32,49,"YELLOW",1084,"blacksquare.bmp",501,
7/21/2014,15:10,C:\Documents and Settings\lab\Desktop\Tadpole\Stroop Task\stroop 1.csv,9,1,1,65,65.01,encode,57,SPACE,"BLUE",903,True,117654,32,49,"BLUE",933,"blacksquare.bmp",485,
7/21/2014,15:10,C:\Documents and Settings\lab\Desktop\Tadpole\Stroop Task\stroop 1.csv,9,1,1,66,66.01,encode,57,SPACE,"GREEN",1677,True,119121,32,48,"GREEN",1701,"blacksquare.bmp",501,
7/21/2014,15:10,C:\Documents and Settings\lab\Desktop\Tadpole\Stroop Task\stroop 1.csv,9,1,1,67,67.01,encode,57,SPACE,"GREEN",1250,True,121371,32,48,"GREEN",1267,"blacksquare.bmp",484,
7/21/2014,15:10,C:\Documents and Settings\lab\Desktop\Tadpole\Stroop Task\stroop 1.csv,9,1,1,68,68.01,encode,57,SPACE,"YELLOW",1723,True,123170,33,49,"YELLOW",1750,"blacksquare.bmp",485,
7/21/2014,15:10,C:\Documents and Settings\lab\Desktop\Tadpole\Stroop Task\stroop 1.csv,9,1,1,69,69.01,encode,57,SPACE,"RED",1095,True,125454,32,48,"RED",1118,"blacksquare.bmp",484,
7/21/2014,15:10,C:\Documents and Settings\lab\Desktop\Tadpole\Stroop Task\stroop 1.csv,9,1,1,70,70.01,encode,57,SPACE,"YELLOW",1476,True,127104,32,49,"YELLOW",1500,"blacksquare.bmp",484,
7/21/2014,15:10,C:\Documents and Settings\lab\Desktop\Tadpole\Stroop Task\stroop 1.csv,9,1,1,71,71.01,encode,57,SPACE,"GREEN",1291,True,129137,32,49,"GREEN",1316,"blacksquare.bmp",486,
7/21/2014,15:10,C:\Documents and Settings\lab\Desktop\Tadpole\Stroop Task\stroop 1.csv,9,1,1,72,72.01,encode,57,SPACE,"RED",992,True,130988,32,49,"RED",1016,"blacksquare.bmp",485,
7/21/2014,15:10,C:\Documents and Settings\lab\Desktop\Tadpole\Stroop Task\stroop 1.csv,9,1,1,73,73.01,encode,57,SPACE,"GREEN",1411,True,132538,32,48,"GREEN",1434,"blacksquare.bmp",501,
7/21/2014,15:10,C:\Documents and Settings\lab\Desktop\Tadpole\Stroop Task\stroop 1.csv,9,1,1,74,74.01,encode,57,SPACE,"YELLOW",1098,True,134521,32,49,"YELLOW",1116,"blacksquare.bmp",485,
7/21/2014,15:10,C:\Documents and Settings\lab\Desktop\Tadpole\Stroop Task\stroop 1.csv,9,1,1,75,75.01,encode,57,SPACE,"RED",1007,True,136171,32,49,"RED",1033,"blacksquare.bmp",485,
7/21/2014,15:10,C:\Documents and Settings\lab\Desktop\Tadpole\Stroop Task\stroop 1.csv,9,1,1,76,76.01,encode,57,SPACE,"RED",1328,True,137738,32,49,"RED",1349,"blacksquare.bmp",485,
7/21/2014,15:10,C:\Documents and Settings\lab\Desktop\Tadpole\Stroop Task\stroop 1.csv,9,1,1,77,77.01,encode,57,SPACE,"RED",1150,True,139621,32,48,"RED",1167,"blacksquare.bmp",485,
7/21/2014,15:10,C:\Documents and Settings\lab\Desktop\Tadpole\Stroop Task\stroop 1.csv,9,1,1,78,78.01,encode,57,SPACE,"BLUE",1041,True,141321,32,49,"BLUE",1067,"blacksquare.bmp",501,
7/21/2014,15:10,C:\Documents and Settings\lab\Desktop\Tadpole\Stroop Task\stroop 1.csv,9,1,1,79,79.01,encode,57,SPACE,"BLUE",1135,True,142938,32,49,"BLUE",1166,"blacksquare.bmp",485,
7/21/2014,15:10,C:\Documents and Settings\lab\Desktop\Tadpole\Stroop Task\stroop 1.csv,9,1,1,80,80.01,encode,57,SPACE,"BLUE",1331,True,144638,32,49,"BLUE",1350,"blacksquare.bmp",484,
7/21/2014,15:10,C:\Documents and Settings\lab\Desktop\Tadpole\Stroop Task\stroop 1.csv,9,1,1,81,81.01,encode,57,SPACE,"RED",1079,True,146521,32,49,"RED",1100,"blacksquare.bmp",485,
7/21/2014,15:10,C:\Documents and Settings\lab\Desktop\Tadpole\Stroop Task\stroop 1.csv,9,1,1,82,82.01,encode,57,SPACE,"BLUE",924,True,148155,32,49,"BLUE",950,"blacksquare.bmp",501,
7/21/2014,15:10,C:\Documents and Settings\lab\Desktop\Tadpole\Stroop Task\stroop 1.csv,9,1,1,83,83.01,encode,57,SPACE,"RED",1064,True,149655,32,49,"RED",1083,"blacksquare.bmp",484,
7/21/2014,15:10,C:\Documents and Settings\lab\Desktop\Tadpole\Stroop Task\stroop 1.csv,9,1,1,84,84.01,encode,57,SPACE,"RED",1088,True,151271,32,49,"RED",1117,"blacksquare.bmp",484,
7/21/2014,15:10,C:\Documents and Settings\lab\Desktop\Tadpole\Stroop Task\stroop 1.csv,9,1,1,85,85.01,encode,57,SPACE,"RED",965,True,152921,33,49,"RED",984,"blacksquare.bmp",484,
7/21/2014,15:10,C:\Documents and Settings\lab\Desktop\Tadpole\Stroop Task\stroop 1.csv,9,1,1,86,86.01,encode,57,SPACE,"BLUE",1168,True,154438,32,49,"BLUE",1183,"blacksquare.bmp",485,
7/21/2014,15:10,C:\Documents and Settings\lab\Desktop\Tadpole\Stroop Task\stroop 1.csv,9,1,1,87,87.01,encode,57,SPACE,"GREEN",1002,True,156155,32,49,"GREEN",1033,"blacksquare.bmp",484,
7/21/2014,15:10,C:\Documents and Settings\lab\Desktop\Tadpole\Stroop Task\stroop 1.csv,9,1,1,88,88.01,encode,57,SPACE,"RED",915,True,157721,32,49,"RED",934,"blacksquare.bmp",484,
7/21/2014,15:10,C:\Documents and Settings\lab\Desktop\Tadpole\Stroop Task\stroop 1.csv,9,1,1,89,89.01,encode,57,SPACE,"BLUE",888,True,159188,32,49,"BLUE",917,"blacksquare.bmp",484,
7/21/2014,15:10,C:\Documents and Settings\lab\Desktop\Tadpole\Stroop Task\stroop 1.csv,9,1,1,90,90.01,encode,57,SPACE,"YELLOW",957,True,160638,32,49,"YELLOW",983,"blacksquare.bmp",485,
7/21/2014,15:10,C:\Documents and Settings\lab\Desktop\Tadpole\Stroop Task\stroop 1.csv,9,1,1,91,91.01,encode,57,SPACE,"RED",1007,True,162155,32,49,"RED",1033,"blacksquare.bmp",484,
7/21/2014,15:10,C:\Documents and Settings\lab\Desktop\Tadpole\Stroop Task\stroop 1.csv,9,1,1,92,92.01,encode,57,SPACE,"YELLOW",961,True,163721,32,49,"YELLOW",983,"blacksquare.bmp",486,
7/21/2014,15:10,C:\Documents and Settings\lab\Desktop\Tadpole\Stroop Task\stroop 1.csv,9,1,1,93,93.01,encode,57,SPACE,"GREEN",947,True,165239,31,49,"GREEN",965,"blacksquare.bmp",486,
7/21/2014,15:10,C:\Documents and Settings\lab\Desktop\Tadpole\Stroop Task\stroop 1.csv,9,1,1,94,94.01,encode,57,SPACE,"RED",894,True,166739,31,49,"RED",916,"blacksquare.bmp",484,
7/21/2014,15:10,C:\Documents and Settings\lab\Desktop\Tadpole\Stroop Task\stroop 1.csv,9,1,1,95,95.01,encode,57,SPACE,"YELLOW",925,True,168188,32,49,"YELLOW",950,"blacksquare.bmp",484,
7/21/2014,15:10,C:\Documents and Settings\lab\Desktop\Tadpole\Stroop Task\stroop 1.csv,9,1,1,96,96.01,encode,57,SPACE,"BLUE",945,True,169671,33,49,"BLUE",967,"blacksquare.bmp",484,
7/21/2014,15:10,C:\Documents and Settings\lab\Desktop\Tadpole\Stroop Task\stroop 1.csv,9,1,1,97,97.01,encode,57,SPACE,"GREEN",1237,True,171171,33,49,"GREEN",1267,"blacksquare.bmp",485,
7/21/2014,15:10,C:\Documents and Settings\lab\Desktop\Tadpole\Stroop Task\stroop 1.csv,9,1,1,98,98.01,encode,57,SPACE,"YELLOW",1043,True,172972,32,49,"YELLOW",1066,"blacksquare.bmp",485,
7/21/2014,15:10,C:\Documents and Settings\lab\Desktop\Tadpole\Stroop Task\stroop 1.csv,9,1,1,99,99.01,encode,57,SPACE,"GREEN",1018,True,174572,32,49,"GREEN",1049,"blacksquare.bmp",486,
7/21/2014,15:10,C:\Documents and Settings\lab\Desktop\Tadpole\Stroop Task\stroop 1.csv,9,1,1,100,100.01,encode,57,SPACE,"BLUE",995,True,176156,31,48,"BLUE",1017,"blacksquare.bmp",485,
7/21/2014,15:10,C:\Documents and Settings\lab\Desktop\Tadpole\Stroop Task\stroop 1.csv,9,1,1,101,101.01,encode,57,SPACE,"RED",1068,True,177706,32,48,"RED",1100,"blacksquare.bmp",484,
7/21/2014,15:10,C:\Documents and Settings\lab\Desktop\Tadpole\Stroop Task\stroop 1.csv,9,1,1,102,102.01,encode,57,SPACE,"GREEN",1195,True,179338,33,49,"GREEN",1217,"blacksquare.bmp",484,
7/21/2014,15:10,C:\Documents and Settings\lab\Desktop\Tadpole\Stroop Task\stroop 1.csv,9,1,1,103,103.01,encode,57,SPACE,"BLUE",1237,True,181088,33,49,"BLUE",1267,"blacksquare.bmp",485,
7/21/2014,15:10,C:\Documents and Settings\lab\Desktop\Tadpole\Stroop Task\stroop 1.csv,9,1,1,104,104.01,encode,57,SPACE,"YELLOW",1619,True,182889,32,49,"YELLOW",1649,"blacksquare.bmp",485,
7/21/2014,15:10,C:\Documents and Settings\lab\Desktop\Tadpole\Stroop Task\stroop 1.csv,9,1,1,105,105.01,encode,57,SPACE,"GREEN",948,True,185072,32,49,"GREEN",966,"blacksquare.bmp",485,
7/21/2014,15:10,C:\Documents and Settings\lab\Desktop\Tadpole\Stroop Task\stroop 1.csv,9,1,1,106,106.01,encode,57,SPACE,"YELLOW",1071,True,186572,32,49,"YELLOW",1100,"blacksquare.bmp",485,
7/21/2014,15:10,C:\Documents and Settings\lab\Desktop\Tadpole\Stroop Task\stroop 1.csv,9,1,1,107,107.01,encode,57,SPACE,"GREEN",1126,True,188206,32,48,"GREEN",1151,"blacksquare.bmp",501,
7/21/2014,15:10,C:\Documents and Settings\lab\Desktop\Tadpole\Stroop Task\stroop 1.csv,9,1,1,108,108.01,encode,57,SPACE,"BLUE",1065,True,189906,32,49,"BLUE",1083,"blacksquare.bmp",484,
7/21/2014,15:10,C:\Documents and Settings\lab\Desktop\Tadpole\Stroop Task\stroop 1.csv,9,1,1,109,109.01,encode,57,SPACE,"GREEN",1128,True,191522,32,49,"GREEN",1150,"blacksquare.bmp",485,
7/21/2014,15:10,C:\Documents and Settings\lab\Desktop\Tadpole\Stroop Task\stroop 1.csv,9,1,1,110,110.01,encode,57,SPACE,"BLUE",1037,True,193206,32,48,"BLUE",1067,"blacksquare.bmp",485,
7/21/2014,15:10,C:\Documents and Settings\lab\Desktop\Tadpole\Stroop Task\stroop 1.csv,9,1,1,111,111.01,encode,57,SPACE,"YELLOW",1115,True,194806,31,49,"YELLOW",1133,"blacksquare.bmp",484,
7/21/2014,15:10,C:\Documents and Settings\lab\Desktop\Tadpole\Stroop Task\stroop 1.csv,9,1,1,112,112.01,encode,57,SPACE,"BLUE",1241,True,196472,32,49,"BLUE",1267,"blacksquare.bmp",485,
7/21/2014,15:10,C:\Documents and Settings\lab\Desktop\Tadpole\Stroop Task\stroop 1.csv,9,1,1,113,113.01,encode,57,SPACE,"BLUE",1457,True,198273,31,48,"BLUE",1483,"blacksquare.bmp",486,
7/21/2014,15:10,C:\Documents and Settings\lab\Desktop\Tadpole\Stroop Task\stroop 1.csv,9,1,1,114,114.01,encode,57,SPACE,"END",1521435,True,200290,32,48,"END",1521436,
