Date,Time,File,Subj,Cond,Block,Trial,Order,task,Resp,Name,Stim,RT,Correct,Started@,LoadTime,TotalInt,Stim 1,Time 1,Stim 2,Time 2,
5/26/2015,10:03,C:\Documents and Settings\lab\Desktop\Tadpole\Stroop Task\stroop 2.csv,888,1,1,1,1.01,encode,57,SPACE,"press spacebar to start practice",90184,True,35,96,113,"press spacebar to start practice",90219,
5/26/2015,10:03,C:\Documents and Settings\lab\Desktop\Tadpole\Stroop Task\stroop 2.csv,888,1,1,2,2.01,encode,57,SPACE,"YELLOW",1344,True,90367,65,82,"YELLOW",1367,"blacksquare.bmp",501,
5/26/2015,10:03,C:\Documents and Settings\lab\Desktop\Tadpole\Stroop Task\stroop 2.csv,888,1,1,3,3.01,encode,57,SPACE,"BLUE",896,True,92317,32,49,"BLUE",917,"blacksquare.bmp",501,
5/26/2015,10:03,C:\Documents and Settings\lab\Desktop\Tadpole\Stroop Task\stroop 2.csv,888,1,1,4,4.01,encode,57,SPACE,"RED",954,True,93784,32,49,"RED",983,"blacksquare.bmp",501,
5/26/2015,10:03,C:\Documents and Settings\lab\Desktop\Tadpole\Stroop Task\stroop 2.csv,888,1,1,5,5.01,encode,57,SPACE,"GREEN",1026,True,95317,32,49,"GREEN",1050,"blacksquare.bmp",502,
5/26/2015,10:03,C:\Documents and Settings\lab\Desktop\Tadpole\Stroop Task\stroop 2.csv,888,1,1,6,6.01,encode,57,SPACE,"RED",1015,True,96918,32,48,"RED",1034,"blacksquare.bmp",501,
5/26/2015,10:03,C:\Documents and Settings\lab\Desktop\Tadpole\Stroop Task\stroop 2.csv,888,1,1,7,7.01,encode,57,SPACE,"BLUE",1989,True,98501,32,48,"BLUE",2017,"blacksquare.bmp",501,
5/26/2015,10:03,C:\Documents and Settings\lab\Desktop\Tadpole\Stroop Task\stroop 2.csv,888,1,1,8,8.01,encode,57,SPACE,"GREEN",1131,True,101067,32,49,"GREEN",1150,"blacksquare.bmp",501,
5/26/2015,10:03,C:\Documents and Settings\lab\Desktop\Tadpole\Stroop Task\stroop 2.csv,888,1,1,9,9.01,encode,57,SPACE,"BLUE",1155,True,102767,32,49,"BLUE",1184,"blacksquare.bmp",501,
5/26/2015,10:03,C:\Documents and Settings\lab\Desktop\Tadpole\Stroop Task\stroop 2.csv,888,1,1,10,10.01,encode,57,SPACE,"GREEN",1235,True,104501,32,48,"GREEN",1267,"blacksquare.bmp",501,
5/26/2015,10:03,C:\Documents and Settings\lab\Desktop\Tadpole\Stroop Task\stroop 2.csv,888,1,1,11,11.01,encode,57,SPACE,"YELLOW",1095,True,106317,32,49,"YELLOW",1117,"blacksquare.bmp",501,
5/26/2015,10:03,C:\Documents and Settings\lab\Desktop\Tadpole\Stroop Task\stroop 2.csv,888,1,1,12,12.01,encode,57,SPACE,"END",1178,True,107984,32,49,"END",1200,"blacksquare.bmp",501,
5/26/2015,10:03,C:\Documents and Settings\lab\Desktop\Tadpole\Stroop Task\stroop 2.csv,888,1,1,13,13.01,encode,57,SPACE,"press spacebar to start task",1328,True,109734,32,49,"press spacebar to start task",1335,
5/26/2015,10:03,C:\Documents and Settings\lab\Desktop\Tadpole\Stroop Task\stroop 2.csv,888,1,1,14,14.01,encode,57,SPACE,"GREEN",1597,True,111118,32,49,"GREEN",1616,"blacksquare.bmp",101,
5/26/2015,10:03,C:\Documents and Settings\lab\Desktop\Tadpole\Stroop Task\stroop 2.csv,888,1,1,15,15.01,encode,57,SPACE,"BLUE",1357,True,112884,33,49,"BLUE",1383,"blacksquare.bmp",102,
5/26/2015,10:03,C:\Documents and Settings\lab\Desktop\Tadpole\Stroop Task\stroop 2.csv,888,1,1,16,16.01,encode,57,SPACE,"BLUE",1380,True,114418,32,48,"BLUE",1400,"blacksquare.bmp",101,
5/26/2015,10:03,C:\Documents and Settings\lab\Desktop\Tadpole\Stroop Task\stroop 2.csv,888,1,1,17,17.01,encode,57,SPACE,"YELLOW",1683,True,115967,33,49,"YELLOW",1700,"blacksquare.bmp",102,
5/26/2015,10:03,C:\Documents and Settings\lab\Desktop\Tadpole\Stroop Task\stroop 2.csv,888,1,1,18,18.01,encode,57,SPACE,"BLUE",1598,True,117818,31,48,"BLUE",1617,"blacksquare.bmp",102,
5/26/2015,10:03,C:\Documents and Settings\lab\Desktop\Tadpole\Stroop Task\stroop 2.csv,888,1,1,19,19.01,encode,57,SPACE,"BLUE",1460,True,119585,31,48,"BLUE",1484,"blacksquare.bmp",100,
5/26/2015,10:03,C:\Documents and Settings\lab\Desktop\Tadpole\Stroop Task\stroop 2.csv,888,1,1,20,20.01,encode,57,SPACE,"RED",1464,True,121217,33,49,"RED",1484,"blacksquare.bmp",101,
5/26/2015,10:03,C:\Documents and Settings\lab\Desktop\Tadpole\Stroop Task\stroop 2.csv,888,1,1,21,21.01,encode,57,SPACE,"RED",1411,True,122851,32,49,"RED",1433,"blacksquare.bmp",101,
5/26/2015,10:03,C:\Documents and Settings\lab\Desktop\Tadpole\Stroop Task\stroop 2.csv,888,1,1,22,22.01,encode,57,SPACE,"RED",1218,True,124434,32,49,"RED",1233,"blacksquare.bmp",102,
5/26/2015,10:03,C:\Documents and Settings\lab\Desktop\Tadpole\Stroop Task\stroop 2.csv,888,1,1,23,23.01,encode,57,SPACE,"RED",1310,True,125818,31,49,"RED",1333,"blacksquare.bmp",101,
5/26/2015,10:03,C:\Documents and Settings\lab\Desktop\Tadpole\Stroop Task\stroop 2.csv,888,1,1,24,24.01,encode,57,SPACE,"BLUE",1313,True,127301,32,49,"BLUE",1333,"blacksquare.bmp",102,
5/26/2015,10:03,C:\Documents and Settings\lab\Desktop\Tadpole\Stroop Task\stroop 2.csv,888,1,1,25,25.01,encode,57,SPACE,"YELLOW",1371,True,128785,31,48,"YELLOW",1400,"blacksquare.bmp",102,
5/26/2015,10:03,C:\Documents and Settings\lab\Desktop\Tadpole\Stroop Task\stroop 2.csv,888,1,1,26,26.01,encode,57,SPACE,"GREEN",1114,True,130335,32,48,"GREEN",1133,"blacksquare.bmp",102,
5/26/2015,10:03,C:\Documents and Settings\lab\Desktop\Tadpole\Stroop Task\stroop 2.csv,888,1,1,27,27.01,encode,57,SPACE,"YELLOW",1170,True,131618,32,49,"YELLOW",1200,"blacksquare.bmp",100,
5/26/2015,10:03,C:\Documents and Settings\lab\Desktop\Tadpole\Stroop Task\stroop 2.csv,888,1,1,28,28.01,encode,57,SPACE,"BLUE",1035,True,132967,33,49,"BLUE",1068,"blacksquare.bmp",100,
5/26/2015,10:03,C:\Documents and Settings\lab\Desktop\Tadpole\Stroop Task\stroop 2.csv,888,1,1,29,29.01,encode,57,SPACE,"YELLOW",1176,True,134184,32,49,"YELLOW",1200,"blacksquare.bmp",102,
5/26/2015,10:03,C:\Documents and Settings\lab\Desktop\Tadpole\Stroop Task\stroop 2.csv,888,1,1,30,30.01,encode,57,SPACE,"BLUE",1166,True,135535,31,49,"BLUE",1182,"blacksquare.bmp",102,
5/26/2015,10:03,C:\Documents and Settings\lab\Desktop\Tadpole\Stroop Task\stroop 2.csv,888,1,1,31,31.01,encode,57,SPACE,"GREEN",1190,True,136868,32,49,"GREEN",1216,"blacksquare.bmp",101,
5/26/2015,10:03,C:\Documents and Settings\lab\Desktop\Tadpole\Stroop Task\stroop 2.csv,888,1,1,32,32.01,encode,57,SPACE,"RED",1021,True,138234,32,49,"RED",1051,"blacksquare.bmp",100,
5/26/2015,10:03,C:\Documents and Settings\lab\Desktop\Tadpole\Stroop Task\stroop 2.csv,888,1,1,33,33.01,encode,57,SPACE,"YELLOW",1011,True,139434,32,49,"YELLOW",1033,"blacksquare.bmp",102,
5/26/2015,10:03,C:\Documents and Settings\lab\Desktop\Tadpole\Stroop Task\stroop 2.csv,888,1,1,34,34.01,encode,57,SPACE,"RED",927,True,140618,32,49,"RED",950,"blacksquare.bmp",100,
5/26/2015,10:03,C:\Documents and Settings\lab\Desktop\Tadpole\Stroop Task\stroop 2.csv,888,1,1,35,35.01,encode,57,SPACE,"YELLOW",1186,True,141717,33,49,"YELLOW",1217,"blacksquare.bmp",102,
5/26/2015,10:03,C:\Documents and Settings\lab\Desktop\Tadpole\Stroop Task\stroop 2.csv,888,1,1,36,36.01,encode,57,SPACE,"BLUE",1144,True,143085,32,48,"BLUE",1167,"blacksquare.bmp",101,
5/26/2015,10:03,C:\Documents and Settings\lab\Desktop\Tadpole\Stroop Task\stroop 2.csv,888,1,1,37,37.01,encode,57,SPACE,"BLUE",1576,True,144401,32,49,"BLUE",1600,"blacksquare.bmp",101,
5/26/2015,10:03,C:\Documents and Settings\lab\Desktop\Tadpole\Stroop Task\stroop 2.csv,888,1,1,38,38.01,encode,57,SPACE,"YELLOW",1063,True,146151,32,49,"YELLOW",1083,"blacksquare.bmp",101,
5/26/2015,10:03,C:\Documents and Settings\lab\Desktop\Tadpole\Stroop Task\stroop 2.csv,888,1,1,39,39.01,encode,57,SPACE,"YELLOW",1491,True,147384,33,49,"YELLOW",1517,"blacksquare.bmp",101,
5/26/2015,10:03,C:\Documents and Settings\lab\Desktop\Tadpole\Stroop Task\stroop 2.csv,888,1,1,40,40.01,encode,57,SPACE,"GREEN",989,True,149051,33,49,"GREEN",1017,"blacksquare.bmp",101,
5/26/2015,10:03,C:\Documents and Settings\lab\Desktop\Tadpole\Stroop Task\stroop 2.csv,888,1,1,41,41.01,encode,57,SPACE,"YELLOW",1261,True,150218,32,48,"YELLOW",1284,"blacksquare.bmp",101,
5/26/2015,10:03,C:\Documents and Settings\lab\Desktop\Tadpole\Stroop Task\stroop 2.csv,888,1,1,42,42.01,encode,57,SPACE,"BLUE",1223,True,151651,32,49,"BLUE",1250,"blacksquare.bmp",101,
5/26/2015,10:03,C:\Documents and Settings\lab\Desktop\Tadpole\Stroop Task\stroop 2.csv,888,1,1,43,43.01,encode,57,SPACE,"GREEN",1029,True,153051,33,49,"GREEN",1050,"blacksquare.bmp",102,
5/26/2015,10:03,C:\Documents and Settings\lab\Desktop\Tadpole\Stroop Task\stroop 2.csv,888,1,1,44,44.01,encode,57,SPACE,"RED",1146,True,154252,32,48,"RED",1166,"blacksquare.bmp",102,
5/26/2015,10:03,C:\Documents and Settings\lab\Desktop\Tadpole\Stroop Task\stroop 2.csv,888,1,1,45,45.01,encode,57,SPACE,"GREEN",1091,True,155568,32,49,"GREEN",1116,"blacksquare.bmp",102,
5/26/2015,10:03,C:\Documents and Settings\lab\Desktop\Tadpole\Stroop Task\stroop 2.csv,888,1,1,46,46.01,encode,57,SPACE,"YELLOW",1030,True,156835,32,48,"YELLOW",1050,"blacksquare.bmp",102,
5/26/2015,10:03,C:\Documents and Settings\lab\Desktop\Tadpole\Stroop Task\stroop 2.csv,888,1,1,47,47.01,encode,57,SPACE,"RED",1010,True,158035,32,49,"RED",1033,"blacksquare.bmp",101,
5/26/2015,10:03,C:\Documents and Settings\lab\Desktop\Tadpole\Stroop Task\stroop 2.csv,888,1,1,48,48.01,encode,57,SPACE,"GREEN",1048,True,159218,32,49,"GREEN",1067,"blacksquare.bmp",100,
5/26/2015,10:03,C:\Documents and Settings\lab\Desktop\Tadpole\Stroop Task\stroop 2.csv,888,1,1,49,49.01,encode,57,SPACE,"YELLOW",1109,True,160434,32,49,"YELLOW",1134,"blacksquare.bmp",101,
5/26/2015,10:03,C:\Documents and Settings\lab\Desktop\Tadpole\Stroop Task\stroop 2.csv,888,1,1,50,50.01,encode,57,SPACE,"RED",1070,True,161718,33,49,"RED",1100,"blacksquare.bmp",101,
5/26/2015,10:03,C:\Documents and Settings\lab\Desktop\Tadpole\Stroop Task\stroop 2.csv,888,1,1,51,51.01,encode,57,SPACE,"YELLOW",1170,True,162968,33,49,"YELLOW",1199,"blacksquare.bmp",102,
5/26/2015,10:03,C:\Documents and Settings\lab\Desktop\Tadpole\Stroop Task\stroop 2.csv,888,1,1,52,52.01,encode,57,SPACE,"GREEN",929,True,164318,32,49,"GREEN",950,"blacksquare.bmp",101,
5/26/2015,10:03,C:\Documents and Settings\lab\Desktop\Tadpole\Stroop Task\stroop 2.csv,888,1,1,53,53.01,encode,57,SPACE,"RED",1244,True,165418,32,48,"RED",1267,"blacksquare.bmp",102,
5/26/2015,10:03,C:\Documents and Settings\lab\Desktop\Tadpole\Stroop Task\stroop 2.csv,888,1,1,54,54.01,encode,57,SPACE,"RED",1039,True,166835,32,48,"RED",1067,"blacksquare.bmp",101,
5/26/2015,10:03,C:\Documents and Settings\lab\Desktop\Tadpole\Stroop Task\stroop 2.csv,888,1,1,55,55.01,encode,57,SPACE,"GREEN",1012,True,168051,33,49,"GREEN",1033,"blacksquare.bmp",102,
5/26/2015,10:03,C:\Documents and Settings\lab\Desktop\Tadpole\Stroop Task\stroop 2.csv,888,1,1,56,56.01,encode,57,SPACE,"BLUE",1145,True,169235,32,49,"BLUE",1166,"blacksquare.bmp",101,
5/26/2015,10:03,C:\Documents and Settings\lab\Desktop\Tadpole\Stroop Task\stroop 2.csv,888,1,1,57,57.01,encode,57,SPACE,"RED",1042,True,170551,33,49,"RED",1067,"blacksquare.bmp",101,
5/26/2015,10:03,C:\Documents and Settings\lab\Desktop\Tadpole\Stroop Task\stroop 2.csv,888,1,1,58,58.01,encode,57,SPACE,"GREEN",1143,True,171768,32,49,"GREEN",1167,"blacksquare.bmp",101,
5/26/2015,10:03,C:\Documents and Settings\lab\Desktop\Tadpole\Stroop Task\stroop 2.csv,888,1,1,59,59.01,encode,57,SPACE,"RED",1119,True,173085,32,48,"RED",1151,"blacksquare.bmp",100,
5/26/2015,10:03,C:\Documents and Settings\lab\Desktop\Tadpole\Stroop Task\stroop 2.csv,888,1,1,60,60.01,encode,57,SPACE,"YELLOW",1169,True,174384,33,49,"YELLOW",1200,"blacksquare.bmp",102,
5/26/2015,10:03,C:\Documents and Settings\lab\Desktop\Tadpole\Stroop Task\stroop 2.csv,888,1,1,61,61.01,encode,57,SPACE,"YELLOW",1311,True,175735,32,49,"YELLOW",1333,"blacksquare.bmp",101,
5/26/2015,10:03,C:\Documents and Settings\lab\Desktop\Tadpole\Stroop Task\stroop 2.csv,888,1,1,62,62.01,encode,57,SPACE,"GREEN",1073,True,177218,33,49,"GREEN",1100,"blacksquare.bmp",101,
5/26/2015,10:03,C:\Documents and Settings\lab\Desktop\Tadpole\Stroop Task\stroop 2.csv,888,1,1,63,63.01,encode,57,SPACE,"YELLOW",1101,True,178468,33,49,"YELLOW",1116,"blacksquare.bmp",102,
5/26/2015,10:03,C:\Documents and Settings\lab\Desktop\Tadpole\Stroop Task\stroop 2.csv,888,1,1,64,64.01,encode,57,SPACE,"GREEN",1119,True,179735,32,49,"GREEN",1149,"blacksquare.bmp",102,
5/26/2015,10:03,C:\Documents and Settings\lab\Desktop\Tadpole\Stroop Task\stroop 2.csv,888,1,1,65,65.01,encode,57,SPACE,"YELLOW",1096,True,181035,32,49,"YELLOW",1117,"blacksquare.bmp",100,
5/26/2015,10:03,C:\Documents and Settings\lab\Desktop\Tadpole\Stroop Task\stroop 2.csv,888,1,1,66,66.01,encode,57,SPACE,"GREEN",1059,True,182301,33,49,"GREEN",1083,"blacksquare.bmp",102,
5/26/2015,10:03,C:\Documents and Settings\lab\Desktop\Tadpole\Stroop Task\stroop 2.csv,888,1,1,67,67.01,encode,57,SPACE,"BLUE",1142,True,183535,32,49,"BLUE",1167,"blacksquare.bmp",100,
5/26/2015,10:03,C:\Documents and Settings\lab\Desktop\Tadpole\Stroop Task\stroop 2.csv,888,1,1,68,68.01,encode,57,SPACE,"GREEN",1200,True,184851,32,49,"GREEN",1217,"blacksquare.bmp",101,
5/26/2015,10:03,C:\Documents and Settings\lab\Desktop\Tadpole\Stroop Task\stroop 2.csv,888,1,1,69,69.01,encode,57,SPACE,"GREEN",1014,True,186218,33,49,"GREEN",1033,"blacksquare.bmp",102,
5/26/2015,10:03,C:\Documents and Settings\lab\Desktop\Tadpole\Stroop Task\stroop 2.csv,888,1,1,70,70.01,encode,57,SPACE,"YELLOW",1155,True,187402,32,49,"YELLOW",1182,"blacksquare.bmp",102,
5/26/2015,10:03,C:\Documents and Settings\lab\Desktop\Tadpole\Stroop Task\stroop 2.csv,888,1,1,71,71.01,encode,57,SPACE,"RED",1267,True,188735,32,49,"RED",1300,"blacksquare.bmp",101,
5/26/2015,10:03,C:\Documents and Settings\lab\Desktop\Tadpole\Stroop Task\stroop 2.csv,888,1,1,72,72.01,encode,57,SPACE,"YELLOW",1070,True,190185,32,49,"YELLOW",1100,"blacksquare.bmp",101,
5/26/2015,10:03,C:\Documents and Settings\lab\Desktop\Tadpole\Stroop Task\stroop 2.csv,888,1,1,73,73.01,encode,57,SPACE,"GREEN",1193,True,191435,32,49,"GREEN",1217,"blacksquare.bmp",100,
5/26/2015,10:03,C:\Documents and Settings\lab\Desktop\Tadpole\Stroop Task\stroop 2.csv,888,1,1,74,74.01,encode,57,SPACE,"YELLOW",1105,True,192801,33,49,"YELLOW",1134,"blacksquare.bmp",101,
5/26/2015,10:03,C:\Documents and Settings\lab\Desktop\Tadpole\Stroop Task\stroop 2.csv,888,1,1,75,75.01,encode,57,SPACE,"BLUE",1059,True,194085,32,48,"BLUE",1084,"blacksquare.bmp",101,
5/26/2015,10:03,C:\Documents and Settings\lab\Desktop\Tadpole\Stroop Task\stroop 2.csv,888,1,1,76,76.01,encode,57,SPACE,"BLUE",1446,True,195318,32,49,"BLUE",1467,"blacksquare.bmp",101,
5/26/2015,10:03,C:\Documents and Settings\lab\Desktop\Tadpole\Stroop Task\stroop 2.csv,888,1,1,77,77.01,encode,57,SPACE,"GREEN",1354,True,196935,32,49,"GREEN",1383,"blacksquare.bmp",101,
5/26/2015,10:03,C:\Documents and Settings\lab\Desktop\Tadpole\Stroop Task\stroop 2.csv,888,1,1,78,78.01,encode,57,SPACE,"RED",1523,True,198468,33,49,"RED",1550,"blacksquare.bmp",102,
5/26/2015,10:03,C:\Documents and Settings\lab\Desktop\Tadpole\Stroop Task\stroop 2.csv,888,1,1,79,79.01,encode,57,SPACE,"YELLOW",972,True,200169,32,48,"YELLOW",1000,"blacksquare.bmp",101,
5/26/2015,10:03,C:\Documents and Settings\lab\Desktop\Tadpole\Stroop Task\stroop 2.csv,888,1,1,80,80.01,encode,57,SPACE,"BLUE",923,True,201318,32,49,"BLUE",950,"blacksquare.bmp",102,
5/26/2015,10:03,C:\Documents and Settings\lab\Desktop\Tadpole\Stroop Task\stroop 2.csv,888,1,1,81,81.01,encode,57,SPACE,"RED",1044,True,202419,32,48,"RED",1067,"blacksquare.bmp",101,
5/26/2015,10:03,C:\Documents and Settings\lab\Desktop\Tadpole\Stroop Task\stroop 2.csv,888,1,1,82,82.01,encode,57,SPACE,"RED",1160,True,203635,33,49,"RED",1183,"blacksquare.bmp",101,
5/26/2015,10:03,C:\Documents and Settings\lab\Desktop\Tadpole\Stroop Task\stroop 2.csv,888,1,1,83,83.01,encode,57,SPACE,"BLUE",1040,True,204968,33,49,"BLUE",1067,"blacksquare.bmp",101,
5/26/2015,10:03,C:\Documents and Settings\lab\Desktop\Tadpole\Stroop Task\stroop 2.csv,888,1,1,84,84.01,encode,57,SPACE,"GREEN",1013,True,206185,32,49,"GREEN",1033,"blacksquare.bmp",102,
5/26/2015,10:03,C:\Documents and Settings\lab\Desktop\Tadpole\Stroop Task\stroop 2.csv,888,1,1,85,85.01,encode,57,SPACE,"BLUE",1066,True,207369,32,49,"BLUE",1083,"blacksquare.bmp",101,
5/26/2015,10:03,C:\Documents and Settings\lab\Desktop\Tadpole\Stroop Task\stroop 2.csv,888,1,1,86,86.01,encode,57,SPACE,"RED",1263,True,208602,32,49,"RED",1283,"blacksquare.bmp",101,
5/26/2015,10:03,C:\Documents and Settings\lab\Desktop\Tadpole\Stroop Task\stroop 2.csv,888,1,1,87,87.01,encode,57,SPACE,"BLUE",1075,True,210035,32,49,"BLUE",1100,"blacksquare.bmp",101,
5/26/2015,10:03,C:\Documents and Settings\lab\Desktop\Tadpole\Stroop Task\stroop 2.csv,888,1,1,88,88.01,encode,57,SPACE,"BLUE",1446,True,211285,32,49,"BLUE",1466,"blacksquare.bmp",102,
5/26/2015,10:03,C:\Documents and Settings\lab\Desktop\Tadpole\Stroop Task\stroop 2.csv,888,1,1,89,89.01,encode,57,SPACE,"BLUE",1057,True,212902,32,49,"BLUE",1083,"blacksquare.bmp",101,
5/26/2015,10:03,C:\Documents and Settings\lab\Desktop\Tadpole\Stroop Task\stroop 2.csv,888,1,1,90,90.01,encode,57,SPACE,"RED",1182,True,214135,33,49,"RED",1200,"blacksquare.bmp",101,
5/26/2015,10:03,C:\Documents and Settings\lab\Desktop\Tadpole\Stroop Task\stroop 2.csv,888,1,1,91,91.01,encode,57,SPACE,"RED",1165,True,215485,32,49,"RED",1183,"blacksquare.bmp",102,
5/26/2015,10:03,C:\Documents and Settings\lab\Desktop\Tadpole\Stroop Task\stroop 2.csv,888,1,1,92,92.01,encode,57,SPACE,"YELLOW",1213,True,216819,32,49,"YELLOW",1233,"blacksquare.bmp",101,
5/26/2015,10:03,C:\Documents and Settings\lab\Desktop\Tadpole\Stroop Task\stroop 2.csv,888,1,1,93,93.01,encode,57,SPACE,"RED",1075,True,218202,32,49,"RED",1100,"blacksquare.bmp",101,
5/26/2015,10:03,C:\Documents and Settings\lab\Desktop\Tadpole\Stroop Task\stroop 2.csv,888,1,1,94,94.01,encode,57,SPACE,"GREEN",1085,True,219452,32,49,"GREEN",1117,"blacksquare.bmp",100,
5/26/2015,10:03,C:\Documents and Settings\lab\Desktop\Tadpole\Stroop Task\stroop 2.csv,888,1,1,95,95.01,encode,57,SPACE,"RED",1185,True,220718,33,49,"RED",1217,"blacksquare.bmp",102,
5/26/2015,10:03,C:\Documents and Settings\lab\Desktop\Tadpole\Stroop Task\stroop 2.csv,888,1,1,96,96.01,encode,57,SPACE,"GREEN",1175,True,222086,32,48,"GREEN",1201,"blacksquare.bmp",100,
5/26/2015,10:03,C:\Documents and Settings\lab\Desktop\Tadpole\Stroop Task\stroop 2.csv,888,1,1,97,97.01,encode,57,SPACE,"YELLOW",1223,True,223435,32,49,"YELLOW",1250,"blacksquare.bmp",102,
5/26/2015,10:03,C:\Documents and Settings\lab\Desktop\Tadpole\Stroop Task\stroop 2.csv,888,1,1,98,98.01,encode,57,SPACE,"BLUE",1236,True,224836,32,48,"BLUE",1267,"blacksquare.bmp",101,
5/26/2015,10:03,C:\Documents and Settings\lab\Desktop\Tadpole\Stroop Task\stroop 2.csv,888,1,1,99,99.01,encode,57,SPACE,"BLUE",1137,True,226252,32,48,"BLUE",1167,"blacksquare.bmp",102,
5/26/2015,10:03,C:\Documents and Settings\lab\Desktop\Tadpole\Stroop Task\stroop 2.csv,888,1,1,100,100.01,encode,57,SPACE,"GREEN",1520,True,227569,32,49,"GREEN",1550,"blacksquare.bmp",101,
5/26/2015,10:03,C:\Documents and Settings\lab\Desktop\Tadpole\Stroop Task\stroop 2.csv,888,1,1,101,101.01,encode,57,SPACE,"GREEN",1137,True,229269,31,49,"GREEN",1166,"blacksquare.bmp",102,
5/26/2015,10:03,C:\Documents and Settings\lab\Desktop\Tadpole\Stroop Task\stroop 2.csv,888,1,1,102,102.01,encode,57,SPACE,"YELLOW",1155,True,230586,32,48,"YELLOW",1184,"blacksquare.bmp",101,
5/26/2015,10:03,C:\Documents and Settings\lab\Desktop\Tadpole\Stroop Task\stroop 2.csv,888,1,1,103,103.01,encode,57,SPACE,"RED",1098,True,231919,32,48,"RED",1118,"blacksquare.bmp",100,
5/26/2015,10:03,C:\Documents and Settings\lab\Desktop\Tadpole\Stroop Task\stroop 2.csv,888,1,1,104,104.01,encode,57,SPACE,"YELLOW",1204,True,233185,32,49,"YELLOW",1233,"blacksquare.bmp",102,
5/26/2015,10:03,C:\Documents and Settings\lab\Desktop\Tadpole\Stroop Task\stroop 2.csv,888,1,1,105,105.01,encode,57,SPACE,"RED",1090,True,234569,32,49,"RED",1116,"blacksquare.bmp",102,
5/26/2015,10:03,C:\Documents and Settings\lab\Desktop\Tadpole\Stroop Task\stroop 2.csv,888,1,1,106,106.01,encode,57,SPACE,"YELLOW",1133,True,235836,32,48,"YELLOW",1150,"blacksquare.bmp",101,
5/26/2015,10:03,C:\Documents and Settings\lab\Desktop\Tadpole\Stroop Task\stroop 2.csv,888,1,1,107,107.01,encode,57,SPACE,"GREEN",1102,True,237135,33,49,"GREEN",1134,"blacksquare.bmp",101,
5/26/2015,10:03,C:\Documents and Settings\lab\Desktop\Tadpole\Stroop Task\stroop 2.csv,888,1,1,108,108.01,encode,57,SPACE,"RED",1160,True,238419,32,48,"RED",1184,"blacksquare.bmp",101,
5/26/2015,10:03,C:\Documents and Settings\lab\Desktop\Tadpole\Stroop Task\stroop 2.csv,888,1,1,109,109.01,encode,57,SPACE,"YELLOW",992,True,239752,32,49,"YELLOW",1017,"blacksquare.bmp",101,
5/26/2015,10:03,C:\Documents and Settings\lab\Desktop\Tadpole\Stroop Task\stroop 2.csv,888,1,1,110,110.01,encode,57,SPACE,"BLUE",1351,True,240919,32,48,"BLUE",1368,"blacksquare.bmp",100,
5/26/2015,10:03,C:\Documents and Settings\lab\Desktop\Tadpole\Stroop Task\stroop 2.csv,888,1,1,111,111.01,encode,57,SPACE,"GREEN",1167,True,242435,32,49,"GREEN",1184,"blacksquare.bmp",101,
5/26/2015,10:03,C:\Documents and Settings\lab\Desktop\Tadpole\Stroop Task\stroop 2.csv,888,1,1,112,112.01,encode,57,SPACE,"BLUE",998,True,243769,32,49,"BLUE",1017,"blacksquare.bmp",100,
5/26/2015,10:03,C:\Documents and Settings\lab\Desktop\Tadpole\Stroop Task\stroop 2.csv,888,1,1,113,113.01,encode,57,SPACE,"RED",1189,True,244935,32,49,"RED",1217,"blacksquare.bmp",101,
5/26/2015,10:03,C:\Documents and Settings\lab\Desktop\Tadpole\Stroop Task\stroop 2.csv,888,1,1,114,114.01,encode,57,SPACE,"END",1252,True,246302,33,49,"END",1283,"blacksquare.bmp",102,
