Date,Time,File,Subj,Cond,Block,Trial,Order,task,Resp,Name,Stim,RT,Correct,Started@,LoadTime,TotalInt,Stim 1,Time 1,Stim 2,Time 2,
10/22/2015,10:34,C:\Documents and Settings\lab\Desktop\Tadpole\Perceptual Task\Tadpole_Perceptual_4.csv,101,1,1,1,1.01,retrieval,57,SPACE,"press spacebar to start perceptual task",8402,True,0,16,44,"press spacebar to start perceptual task",8408,
10/22/2015,10:34,C:\Documents and Settings\lab\Desktop\Tadpole\Perceptual Task\Tadpole_Perceptual_4.csv,101,1,1,1,2.01,retrieval,57,SPACE,"MutedBallie.avi (174x144)",498,True,8452,803,830,"MutedBallie.avi (174x144)",521,"blacksquare.bmp",1219,
10/22/2015,10:34,C:\Documents and Settings\lab\Desktop\Tadpole\Perceptual Task\Tadpole_Perceptual_4.csv,101,1,1,1,2.02,retrieval,57,SPACE,"blacksquare.bmp",1214,True,8452,803,830,"MutedBallie.avi (174x144)",521,"blacksquare.bmp",1219,
10/22/2015,10:34,C:\Documents and Settings\lab\Desktop\Tadpole\Perceptual Task\Tadpole_Perceptual_4.csv,101,1,1,2,3.01,retrieval,1,1,"chair_refrigerator_b.bmp",3649,True,11022,120,148,"chair_refrigerator_b.bmp",3668,"blacksquare.bmp",1393,
10/22/2015,10:34,C:\Documents and Settings\lab\Desktop\Tadpole\Perceptual Task\Tadpole_Perceptual_4.csv,101,1,1,2,3.02,retrieval,57,SPACE,"blacksquare.bmp",1389,True,11022,120,148,"chair_refrigerator_b.bmp",3668,"blacksquare.bmp",1393,
10/22/2015,10:34,C:\Documents and Settings\lab\Desktop\Tadpole\Perceptual Task\Tadpole_Perceptual_4.csv,101,1,1,3,4.01,retrieval,2,2,"grapes_balloons_b.bmp",2678,True,16231,160,187,"grapes_balloons_b.bmp",2704,"blacksquare.bmp",5516,
10/22/2015,10:34,C:\Documents and Settings\lab\Desktop\Tadpole\Perceptual Task\Tadpole_Perceptual_4.csv,101,1,1,3,4.02,retrieval,57,SPACE,"blacksquare.bmp",5514,True,16231,160,187,"grapes_balloons_b.bmp",2704,"blacksquare.bmp",5516,
10/22/2015,10:34,C:\Documents and Settings\lab\Desktop\Tadpole\Perceptual Task\Tadpole_Perceptual_4.csv,101,1,1,4,5.01,retrieval,2,2,"spoon_ball_b.bmp",2395,True,24638,148,174,"spoon_ball_b.bmp",2410,"blacksquare.bmp",1500,
10/22/2015,10:34,C:\Documents and Settings\lab\Desktop\Tadpole\Perceptual Task\Tadpole_Perceptual_4.csv,101,1,1,4,5.02,retrieval,57,SPACE,"blacksquare.bmp",1491,True,24638,148,174,"spoon_ball_b.bmp",2410,"blacksquare.bmp",1500,
10/22/2015,10:34,C:\Documents and Settings\lab\Desktop\Tadpole\Perceptual Task\Tadpole_Perceptual_4.csv,101,1,1,5,6.01,retrieval,2,2,"cookie_sock_b.bmp",3568,False,28722,147,174,"cookie_sock_b.bmp",3588,"blacksquare.bmp",1915,
10/22/2015,10:34,C:\Documents and Settings\lab\Desktop\Tadpole\Perceptual Task\Tadpole_Perceptual_4.csv,101,1,1,5,6.02,retrieval,57,SPACE,"blacksquare.bmp",1902,True,28722,147,174,"cookie_sock_b.bmp",3588,"blacksquare.bmp",1915,
10/22/2015,10:34,C:\Documents and Settings\lab\Desktop\Tadpole\Perceptual Task\Tadpole_Perceptual_4.csv,101,1,1,6,7.01,retrieval,2,2,"orange_bread_b.bmp",8582,True,34399,147,174,"orange_bread_b.bmp",8595,"blacksquare.bmp",2343,
10/22/2015,10:34,C:\Documents and Settings\lab\Desktop\Tadpole\Perceptual Task\Tadpole_Perceptual_4.csv,101,1,1,6,7.02,retrieval,57,SPACE,"blacksquare.bmp",2339,True,34399,147,174,"orange_bread_b.bmp",8595,"blacksquare.bmp",2343,
10/22/2015,10:34,C:\Documents and Settings\lab\Desktop\Tadpole\Perceptual Task\Tadpole_Perceptual_4.csv,101,1,1,7,8.01,retrieval,1,1,"butterfly_flowers_b.bmp",8138,False,45511,134,161,"butterfly_flowers_b.bmp",8153,"blacksquare.bmp",1607,
10/22/2015,10:34,C:\Documents and Settings\lab\Desktop\Tadpole\Perceptual Task\Tadpole_Perceptual_4.csv,101,1,1,7,8.02,retrieval,57,SPACE,"blacksquare.bmp",1601,True,45511,134,161,"butterfly_flowers_b.bmp",8153,"blacksquare.bmp",1607,
10/22/2015,10:34,C:\Documents and Settings\lab\Desktop\Tadpole\Perceptual Task\Tadpole_Perceptual_4.csv,101,1,1,8,9.01,retrieval,1,1,"cat_mouse_b.bmp",2940,True,55432,160,188,"cat_mouse_b.bmp",2959,"blacksquare.bmp",1085,
10/22/2015,10:34,C:\Documents and Settings\lab\Desktop\Tadpole\Perceptual Task\Tadpole_Perceptual_4.csv,101,1,1,8,9.02,retrieval,57,SPACE,"blacksquare.bmp",1075,True,55432,160,188,"cat_mouse_b.bmp",2959,"blacksquare.bmp",1085,
10/22/2015,10:34,C:\Documents and Settings\lab\Desktop\Tadpole\Perceptual Task\Tadpole_Perceptual_4.csv,101,1,1,9,10.01,retrieval,2,2,"duck_pig_b.bmp",11424,False,59664,119,146,"duck_pig_b.bmp",11447,"blacksquare.bmp",1327,
10/22/2015,10:34,C:\Documents and Settings\lab\Desktop\Tadpole\Perceptual Task\Tadpole_Perceptual_4.csv,101,1,1,9,10.02,retrieval,57,SPACE,"blacksquare.bmp",1324,True,59664,119,146,"duck_pig_b.bmp",11447,"blacksquare.bmp",1327,
10/22/2015,10:34,C:\Documents and Settings\lab\Desktop\Tadpole\Perceptual Task\Tadpole_Perceptual_4.csv,101,1,1,10,11.01,retrieval,2,2,"fork_tv_b.bmp",11611,True,72584,132,160,"fork_tv_b.bmp",11635,"blacksquare.bmp",4311,
10/22/2015,10:34,C:\Documents and Settings\lab\Desktop\Tadpole\Perceptual Task\Tadpole_Perceptual_4.csv,101,1,1,10,11.02,retrieval,57,SPACE,"blacksquare.bmp",4310,True,72584,132,160,"fork_tv_b.bmp",11635,"blacksquare.bmp",4311,
10/22/2015,10:34,C:\Documents and Settings\lab\Desktop\Tadpole\Perceptual Task\Tadpole_Perceptual_4.csv,101,1,1,11,12.01,retrieval,2,2,"shoe_pizza_b.bmp",13579,True,88690,160,187,"shoe_pizza_b.bmp",13602,"blacksquare.bmp",1955,
10/22/2015,10:34,C:\Documents and Settings\lab\Desktop\Tadpole\Perceptual Task\Tadpole_Perceptual_4.csv,101,1,1,11,12.02,retrieval,57,SPACE,"blacksquare.bmp",1950,True,88690,160,187,"shoe_pizza_b.bmp",13602,"blacksquare.bmp",1955,
10/22/2015,10:34,C:\Documents and Settings\lab\Desktop\Tadpole\Perceptual Task\Tadpole_Perceptual_4.csv,101,1,1,12,13.01,retrieval,2,2,"bottle_leaf_b.bmp",6058,True,104434,120,148,"bottle_leaf_b.bmp",6078,"blacksquare.bmp",2450,
10/22/2015,10:34,C:\Documents and Settings\lab\Desktop\Tadpole\Perceptual Task\Tadpole_Perceptual_4.csv,101,1,1,12,13.02,retrieval,57,SPACE,"blacksquare.bmp",2443,True,104434,120,148,"bottle_leaf_b.bmp",6078,"blacksquare.bmp",2450,
10/22/2015,10:34,C:\Documents and Settings\lab\Desktop\Tadpole\Perceptual Task\Tadpole_Perceptual_4.csv,101,1,1,13,14.01,retrieval,1,1,"icecream_broccoli_b.bmp",9418,True,113110,134,160,"icecream_broccoli_b.bmp",9440,"blacksquare.bmp",2210,
10/22/2015,10:34,C:\Documents and Settings\lab\Desktop\Tadpole\Perceptual Task\Tadpole_Perceptual_4.csv,101,1,1,13,14.02,retrieval,57,SPACE,"blacksquare.bmp",2208,True,113110,134,160,"icecream_broccoli_b.bmp",9440,"blacksquare.bmp",2210,
10/22/2015,10:34,C:\Documents and Settings\lab\Desktop\Tadpole\Perceptual Task\Tadpole_Perceptual_4.csv,101,1,1,14,15.01,retrieval,1,1,"teddybear_crayon_b.bmp",3702,True,124920,146,172,"teddybear_crayon_b.bmp",3723,"blacksquare.bmp",1192,
10/22/2015,10:34,C:\Documents and Settings\lab\Desktop\Tadpole\Perceptual Task\Tadpole_Perceptual_4.csv,101,1,1,14,15.02,retrieval,57,SPACE,"blacksquare.bmp",1186,True,124920,146,172,"teddybear_crayon_b.bmp",3723,"blacksquare.bmp",1192,
10/22/2015,10:34,C:\Documents and Settings\lab\Desktop\Tadpole\Perceptual Task\Tadpole_Perceptual_4.csv,101,1,1,15,16.01,retrieval,1,1,"dog_bunny_b.bmp",2817,True,130007,147,173,"dog_bunny_b.bmp",2839,"blacksquare.bmp",3240,
10/22/2015,10:34,C:\Documents and Settings\lab\Desktop\Tadpole\Perceptual Task\Tadpole_Perceptual_4.csv,101,1,1,15,16.02,retrieval,57,SPACE,"blacksquare.bmp",3240,True,130007,147,173,"dog_bunny_b.bmp",2839,"blacksquare.bmp",3240,
10/22/2015,10:34,C:\Documents and Settings\lab\Desktop\Tadpole\Perceptual Task\Tadpole_Perceptual_4.csv,101,1,1,16,17.01,retrieval,1,1,"strawberry_apple_b.bmp",1921,True,136259,133,161,"strawberry_apple_b.bmp",1941,"blacksquare.bmp",2356,
10/22/2015,10:34,C:\Documents and Settings\lab\Desktop\Tadpole\Perceptual Task\Tadpole_Perceptual_4.csv,101,1,1,16,17.02,retrieval,57,SPACE,"blacksquare.bmp",2350,True,136259,133,161,"strawberry_apple_b.bmp",1941,"blacksquare.bmp",2356,
10/22/2015,10:34,C:\Documents and Settings\lab\Desktop\Tadpole\Perceptual Task\Tadpole_Perceptual_4.csv,101,1,1,17,18.01,retrieval,2,2,"bicycle_clock_b.bmp",3236,True,140717,134,161,"bicycle_clock_b.bmp",3254,"blacksquare.bmp",1607,
10/22/2015,10:34,C:\Documents and Settings\lab\Desktop\Tadpole\Perceptual Task\Tadpole_Perceptual_4.csv,101,1,1,17,18.02,retrieval,57,SPACE,"blacksquare.bmp",1598,True,140717,134,161,"bicycle_clock_b.bmp",3254,"blacksquare.bmp",1607,
10/22/2015,10:34,C:\Documents and Settings\lab\Desktop\Tadpole\Perceptual Task\Tadpole_Perceptual_4.csv,101,1,1,18,19.01,retrieval,1,1,"doll_cake_b.bmp",2655,True,145739,160,186,"doll_cake_b.bmp",2678,"blacksquare.bmp",1795,
10/22/2015,10:34,C:\Documents and Settings\lab\Desktop\Tadpole\Perceptual Task\Tadpole_Perceptual_4.csv,101,1,1,18,19.02,retrieval,57,SPACE,"blacksquare.bmp",1794,True,145739,160,186,"doll_cake_b.bmp",2678,"blacksquare.bmp",1795,
10/22/2015,10:34,C:\Documents and Settings\lab\Desktop\Tadpole\Perceptual Task\Tadpole_Perceptual_4.csv,101,1,1,19,20.01,retrieval,2,2,"egg_hat_b.bmp",2637,True,150398,147,173,"egg_hat_b.bmp",2651,"blacksquare.bmp",1460,
10/22/2015,10:34,C:\Documents and Settings\lab\Desktop\Tadpole\Perceptual Task\Tadpole_Perceptual_4.csv,101,1,1,19,20.02,retrieval,57,SPACE,"blacksquare.bmp",1458,True,150398,147,173,"egg_hat_b.bmp",2651,"blacksquare.bmp",1460,
10/22/2015,10:34,C:\Documents and Settings\lab\Desktop\Tadpole\Perceptual Task\Tadpole_Perceptual_4.csv,101,1,1,20,21.01,retrieval,1,1,"bear_elephant_b.bmp",1078,True,154682,133,160,"bear_elephant_b.bmp",1098,"blacksquare.bmp",2049,
10/22/2015,10:34,C:\Documents and Settings\lab\Desktop\Tadpole\Perceptual Task\Tadpole_Perceptual_4.csv,101,1,1,20,21.02,retrieval,57,SPACE,"blacksquare.bmp",2048,True,154682,133,160,"bear_elephant_b.bmp",1098,"blacksquare.bmp",2049,
10/22/2015,10:34,C:\Documents and Settings\lab\Desktop\Tadpole\Perceptual Task\Tadpole_Perceptual_4.csv,101,1,1,21,22.01,retrieval,1,1,"jacket_pillow_b.bmp",2631,True,157989,240,268,"jacket_pillow_b.bmp",2650,"whiteborder.bmp",777,
10/22/2015,10:34,C:\Documents and Settings\lab\Desktop\Tadpole\Perceptual Task\Tadpole_Perceptual_4.csv,101,1,1,21,22.02,retrieval,57,SPACE,"whiteborder.bmp",766,True,157989,240,268,"jacket_pillow_b.bmp",2650,"whiteborder.bmp",777,
