Date,Time,File,Subj,Cond,Block,Trial,Order,task,Resp,Name,Stim,RT,Correct,Started@,LoadTime,TotalInt,Stim 1,Time 1,Stim 2,Time 2,
8/12/2016,14:52,C:\Documents and Settings\lab\Desktop\Tadpole\Perceptual Task\Tadpole_Perceptual_1.csv,129,1,1,1,1.01,retrieval,57,SPACE,"press spacebar to start perceptual task",7941,True,0,22,49,"press spacebar to start perceptual task",7953,
8/12/2016,14:52,C:\Documents and Settings\lab\Desktop\Tadpole\Perceptual Task\Tadpole_Perceptual_1.csv,129,1,1,1,2.01,retrieval,57,SPACE,"MutedBallie.avi (174x144)",8966,True,8002,3762,3789,"MutedBallie.avi (174x144)",8983,"blacksquare.bmp",9092,
8/12/2016,14:52,C:\Documents and Settings\lab\Desktop\Tadpole\Perceptual Task\Tadpole_Perceptual_1.csv,129,1,1,1,2.02,retrieval,57,SPACE,"blacksquare.bmp",9087,True,8002,3762,3789,"MutedBallie.avi (174x144)",8983,"blacksquare.bmp",9092,
8/12/2016,14:52,C:\Documents and Settings\lab\Desktop\Tadpole\Perceptual Task\Tadpole_Perceptual_1.csv,129,1,1,2,3.01,retrieval,2,2,"elephant_bear_b.bmp",40156,False,29866,160,187,"elephant_bear_b.bmp",40179,"blacksquare.bmp",2558,
8/12/2016,14:52,C:\Documents and Settings\lab\Desktop\Tadpole\Perceptual Task\Tadpole_Perceptual_1.csv,129,1,1,2,3.02,retrieval,57,SPACE,"blacksquare.bmp",2545,True,29866,160,187,"elephant_bear_b.bmp",40179,"blacksquare.bmp",2558,
8/12/2016,14:52,C:\Documents and Settings\lab\Desktop\Tadpole\Perceptual Task\Tadpole_Perceptual_1.csv,129,1,1,3,4.01,retrieval,2,2,"bicycle_clock_b.bmp",2167,True,72790,160,187,"bicycle_clock_b.bmp",2182,"blacksquare.bmp",2491,
8/12/2016,14:52,C:\Documents and Settings\lab\Desktop\Tadpole\Perceptual Task\Tadpole_Perceptual_1.csv,129,1,1,3,4.02,retrieval,57,SPACE,"blacksquare.bmp",2486,True,72790,160,187,"bicycle_clock_b.bmp",2182,"blacksquare.bmp",2491,
8/12/2016,14:52,C:\Documents and Settings\lab\Desktop\Tadpole\Perceptual Task\Tadpole_Perceptual_1.csv,129,1,1,4,5.01,retrieval,2,2,"cake_doll_b.bmp",2088,True,77650,147,173,"cake_doll_b.bmp",2103,"blacksquare.bmp",1901,
8/12/2016,14:52,C:\Documents and Settings\lab\Desktop\Tadpole\Perceptual Task\Tadpole_Perceptual_1.csv,129,1,1,4,5.02,retrieval,57,SPACE,"blacksquare.bmp",1898,True,77650,147,173,"cake_doll_b.bmp",2103,"blacksquare.bmp",1901,
8/12/2016,14:52,C:\Documents and Settings\lab\Desktop\Tadpole\Perceptual Task\Tadpole_Perceptual_1.csv,129,1,1,5,6.01,retrieval,2,2,"egg_hat_b.bmp",10089,False,81827,334,361,"egg_hat_b.bmp",10109,"blacksquare.bmp",1727,
8/12/2016,14:52,C:\Documents and Settings\lab\Desktop\Tadpole\Perceptual Task\Tadpole_Perceptual_1.csv,129,1,1,5,6.02,retrieval,57,SPACE,"blacksquare.bmp",1726,True,81827,334,361,"egg_hat_b.bmp",10109,"blacksquare.bmp",1727,
8/12/2016,14:52,C:\Documents and Settings\lab\Desktop\Tadpole\Perceptual Task\Tadpole_Perceptual_1.csv,129,1,1,6,7.01,retrieval,2,2,"bottle_leaf_b.bmp",100299,True,94024,147,174,"bottle_leaf_b.bmp",100321,"blacksquare.bmp",2678,
8/12/2016,14:52,C:\Documents and Settings\lab\Desktop\Tadpole\Perceptual Task\Tadpole_Perceptual_1.csv,129,1,1,6,7.02,retrieval,57,SPACE,"blacksquare.bmp",2665,True,94024,147,174,"bottle_leaf_b.bmp",100321,"blacksquare.bmp",2678,
8/12/2016,14:52,C:\Documents and Settings\lab\Desktop\Tadpole\Perceptual Task\Tadpole_Perceptual_1.csv,129,1,1,7,8.01,retrieval,2,2,"dog_bunny_b.bmp",954,True,197197,401,428,"dog_bunny_b.bmp",978,"blacksquare.bmp",5449,
8/12/2016,14:52,C:\Documents and Settings\lab\Desktop\Tadpole\Perceptual Task\Tadpole_Perceptual_1.csv,129,1,1,7,8.02,retrieval,57,SPACE,"blacksquare.bmp",5438,True,197197,401,428,"dog_bunny_b.bmp",978,"blacksquare.bmp",5449,
8/12/2016,14:52,C:\Documents and Settings\lab\Desktop\Tadpole\Perceptual Task\Tadpole_Perceptual_1.csv,129,1,1,8,9.01,retrieval,57,SPACE,"strawberry_apple_b.bmp",99515956,True,99686771,-99482545,-99482519,"strawberry_apple_b.bmp",-205747,"blacksquare.bmp",99721969,
8/12/2016,14:52,C:\Documents and Settings\lab\Desktop\Tadpole\Perceptual Task\Tadpole_Perceptual_1.csv,129,1,1,8,9.02,retrieval,57,SPACE,"blacksquare.bmp",99516206,True,99686771,-99482545,-99482519,"strawberry_apple_b.bmp",-205747,"blacksquare.bmp",99721969,
8/12/2016,14:52,C:\Documents and Settings\lab\Desktop\Tadpole\Perceptual Task\Tadpole_Perceptual_1.csv,129,1,1,9,10.01,retrieval,57,SPACE,"broccoli_icecream_b.bmp",99733565,True,99720474,-99721969,-99721969,"broccoli_icecream_b.bmp",0,"blacksquare.bmp",99939484,
8/12/2016,14:52,C:\Documents and Settings\lab\Desktop\Tadpole\Perceptual Task\Tadpole_Perceptual_1.csv,129,1,1,9,10.02,retrieval,57,SPACE,"blacksquare.bmp",99733737,True,99720474,-99721969,-99721969,"broccoli_icecream_b.bmp",0,"blacksquare.bmp",99939484,
8/12/2016,14:52,C:\Documents and Settings\lab\Desktop\Tadpole\Perceptual Task\Tadpole_Perceptual_1.csv,129,1,1,10,11.01,retrieval,1,1,"crayon_teddybear_b.bmp",99748472,False,99937989,-99939484,-99939484,"crayon_teddybear_b.bmp",0,"blacksquare.bmp",100168719,
8/12/2016,14:52,C:\Documents and Settings\lab\Desktop\Tadpole\Perceptual Task\Tadpole_Perceptual_1.csv,129,1,1,10,11.02,retrieval,57,SPACE,"blacksquare.bmp",99962956,True,99937989,-99939484,-99939484,"crayon_teddybear_b.bmp",0,"blacksquare.bmp",100168719,
8/12/2016,14:52,C:\Documents and Settings\lab\Desktop\Tadpole\Perceptual Task\Tadpole_Perceptual_1.csv,129,1,1,11,12.01,retrieval,1,1,"jacket_pillow_b.bmp",99967003,False,100167224,-100168719,-100168719,"jacket_pillow_b.bmp",0,"blacksquare.bmp",100187547,
8/12/2016,14:52,C:\Documents and Settings\lab\Desktop\Tadpole\Perceptual Task\Tadpole_Perceptual_1.csv,129,1,1,11,12.02,retrieval,57,SPACE,"blacksquare.bmp",99981784,True,100167224,-100168719,-100168719,"jacket_pillow_b.bmp",0,"blacksquare.bmp",100187547,
8/12/2016,14:52,C:\Documents and Settings\lab\Desktop\Tadpole\Perceptual Task\Tadpole_Perceptual_1.csv,129,1,1,12,13.01,retrieval,57,SPACE,"pig_butterfly_b.bmp",99981956,True,100186052,-100187547,-100187547,"pig_butterfly_b.bmp",0,"blacksquare.bmp",0,
8/12/2016,14:52,C:\Documents and Settings\lab\Desktop\Tadpole\Perceptual Task\Tadpole_Perceptual_1.csv,129,1,1,12,13.02,retrieval,0,,"",0,False,100186052,-100187547,-100187547,"pig_butterfly_b.bmp",0,"blacksquare.bmp",0,
