Date,Time,File,Subj,Cond,Block,Trial,Order,task,Resp,Name,Stim,RT,Correct,Started@,LoadTime,TotalInt,Stim 1,Time 1,Stim 2,Time 2,
9/6/2014,11:59,C:\Documents and Settings\lab\Desktop\Tadpole\Perceptual Task\Tadpole_Perceptual_6.csv,22,1,1,1,1.01,retrieval,57,SPACE,"press spacebar to start perceptual task",39149,True,0,27,54,"press spacebar to start perceptual task",39162,
9/6/2014,11:59,C:\Documents and Settings\lab\Desktop\Tadpole\Perceptual Task\Tadpole_Perceptual_6.csv,22,1,1,1,2.01,retrieval,57,SPACE,"MutedBallie.avi (174x144)",406,True,39216,200,228,"MutedBallie.avi (174x144)",427,"blacksquare.bmp",818,
9/6/2014,11:59,C:\Documents and Settings\lab\Desktop\Tadpole\Perceptual Task\Tadpole_Perceptual_6.csv,22,1,1,1,2.02,retrieval,57,SPACE,"blacksquare.bmp",809,True,39216,200,228,"MutedBallie.avi (174x144)",427,"blacksquare.bmp",818,
9/6/2014,11:59,C:\Documents and Settings\lab\Desktop\Tadpole\Perceptual Task\Tadpole_Perceptual_6.csv,22,1,1,2,3.01,retrieval,1,1,"cookie_pizza_b.bmp",5021,False,40689,174,200,"cookie_pizza_b.bmp",5048,"blacksquare.bmp",3561,
9/6/2014,11:59,C:\Documents and Settings\lab\Desktop\Tadpole\Perceptual Task\Tadpole_Perceptual_6.csv,22,1,1,2,3.02,retrieval,57,SPACE,"blacksquare.bmp",3549,True,40689,174,200,"cookie_pizza_b.bmp",5048,"blacksquare.bmp",3561,
9/6/2014,11:59,C:\Documents and Settings\lab\Desktop\Tadpole\Perceptual Task\Tadpole_Perceptual_6.csv,22,1,1,3,4.01,retrieval,1,1,"sock_shoe_b.bmp",2793,True,49498,160,188,"sock_shoe_b.bmp",2811,"blacksquare.bmp",5329,
9/6/2014,11:59,C:\Documents and Settings\lab\Desktop\Tadpole\Perceptual Task\Tadpole_Perceptual_6.csv,22,1,1,3,4.02,retrieval,57,SPACE,"blacksquare.bmp",5323,True,49498,160,188,"sock_shoe_b.bmp",2811,"blacksquare.bmp",5329,
9/6/2014,11:59,C:\Documents and Settings\lab\Desktop\Tadpole\Perceptual Task\Tadpole_Perceptual_6.csv,22,1,1,4,5.01,retrieval,1,1,"balloons_duck_b.bmp",2090,True,57826,174,201,"balloons_duck_b.bmp",2115,"blacksquare.bmp",3201,
9/6/2014,11:59,C:\Documents and Settings\lab\Desktop\Tadpole\Perceptual Task\Tadpole_Perceptual_6.csv,22,1,1,4,5.02,retrieval,57,SPACE,"blacksquare.bmp",3200,True,57826,174,201,"balloons_duck_b.bmp",2115,"blacksquare.bmp",3201,
9/6/2014,11:59,C:\Documents and Settings\lab\Desktop\Tadpole\Perceptual Task\Tadpole_Perceptual_6.csv,22,1,1,5,6.01,retrieval,2,2,"flowers_cat_b.bmp",2723,True,63343,159,187,"flowers_cat_b.bmp",2744,"blacksquare.bmp",3000,
9/6/2014,11:59,C:\Documents and Settings\lab\Desktop\Tadpole\Perceptual Task\Tadpole_Perceptual_6.csv,22,1,1,5,6.02,retrieval,57,SPACE,"blacksquare.bmp",2992,True,63343,159,187,"flowers_cat_b.bmp",2744,"blacksquare.bmp",3000,
9/6/2014,11:59,C:\Documents and Settings\lab\Desktop\Tadpole\Perceptual Task\Tadpole_Perceptual_6.csv,22,1,1,6,7.01,retrieval,2,2,"pig_butterfly_b.bmp",2393,False,69274,133,160,"pig_butterfly_b.bmp",2410,"blacksquare.bmp",3441,
9/6/2014,11:59,C:\Documents and Settings\lab\Desktop\Tadpole\Perceptual Task\Tadpole_Perceptual_6.csv,22,1,1,6,7.02,retrieval,57,SPACE,"blacksquare.bmp",3433,True,69274,133,160,"pig_butterfly_b.bmp",2410,"blacksquare.bmp",3441,
9/6/2014,11:59,C:\Documents and Settings\lab\Desktop\Tadpole\Perceptual Task\Tadpole_Perceptual_6.csv,22,1,1,7,8.01,retrieval,2,2,"bread_tv_b.bmp",2452,False,75285,133,161,"bread_tv_b.bmp",2476,"blacksquare.bmp",6869,
9/6/2014,11:59,C:\Documents and Settings\lab\Desktop\Tadpole\Perceptual Task\Tadpole_Perceptual_6.csv,22,1,1,7,8.02,retrieval,57,SPACE,"blacksquare.bmp",6864,True,75285,133,161,"bread_tv_b.bmp",2476,"blacksquare.bmp",6869,
9/6/2014,11:59,C:\Documents and Settings\lab\Desktop\Tadpole\Perceptual Task\Tadpole_Perceptual_6.csv,22,1,1,8,9.01,retrieval,2,2,"ball_orange_b.bmp",2659,True,84791,134,160,"ball_orange_b.bmp",2678,"blacksquare.bmp",3067,
9/6/2014,11:59,C:\Documents and Settings\lab\Desktop\Tadpole\Perceptual Task\Tadpole_Perceptual_6.csv,22,1,1,8,9.02,retrieval,57,SPACE,"blacksquare.bmp",3065,True,84791,134,160,"ball_orange_b.bmp",2678,"blacksquare.bmp",3067,
9/6/2014,11:59,C:\Documents and Settings\lab\Desktop\Tadpole\Perceptual Task\Tadpole_Perceptual_6.csv,22,1,1,9,10.01,retrieval,2,2,"fork_spoon_b.bmp",2790,True,90696,173,200,"fork_spoon_b.bmp",2811,"blacksquare.bmp",3108,
9/6/2014,11:59,C:\Documents and Settings\lab\Desktop\Tadpole\Perceptual Task\Tadpole_Perceptual_6.csv,22,1,1,9,10.02,retrieval,57,SPACE,"blacksquare.bmp",3103,True,90696,173,200,"fork_spoon_b.bmp",2811,"blacksquare.bmp",3108,
9/6/2014,11:59,C:\Documents and Settings\lab\Desktop\Tadpole\Perceptual Task\Tadpole_Perceptual_6.csv,22,1,1,10,11.01,retrieval,2,2,"refrigerator_mouse_b.bmp",1861,False,96815,173,200,"refrigerator_mouse_b.bmp",1874,"blacksquare.bmp",2812,
9/6/2014,11:59,C:\Documents and Settings\lab\Desktop\Tadpole\Perceptual Task\Tadpole_Perceptual_6.csv,22,1,1,10,11.02,retrieval,57,SPACE,"blacksquare.bmp",2810,True,96815,173,200,"refrigerator_mouse_b.bmp",1874,"blacksquare.bmp",2812,
9/6/2014,11:59,C:\Documents and Settings\lab\Desktop\Tadpole\Perceptual Task\Tadpole_Perceptual_6.csv,22,1,1,11,12.01,retrieval,1,1,"chair_grapes_b.bmp",2944,True,101701,161,187,"chair_grapes_b.bmp",2959,"blacksquare.bmp",2745,
9/6/2014,11:59,C:\Documents and Settings\lab\Desktop\Tadpole\Perceptual Task\Tadpole_Perceptual_6.csv,22,1,1,11,12.02,retrieval,57,SPACE,"blacksquare.bmp",2744,True,101701,161,187,"chair_grapes_b.bmp",2959,"blacksquare.bmp",2745,
9/6/2014,11:59,C:\Documents and Settings\lab\Desktop\Tadpole\Perceptual Task\Tadpole_Perceptual_6.csv,22,1,1,12,13.01,retrieval,2,2,"clock_dog_b.bmp",3390,False,107592,26,54,"clock_dog_b.bmp",3414,"blacksquare.bmp",3401,
9/6/2014,11:59,C:\Documents and Settings\lab\Desktop\Tadpole\Perceptual Task\Tadpole_Perceptual_6.csv,22,1,1,12,13.02,retrieval,57,SPACE,"blacksquare.bmp",3398,True,107592,26,54,"clock_dog_b.bmp",3414,"blacksquare.bmp",3401,
9/6/2014,11:59,C:\Documents and Settings\lab\Desktop\Tadpole\Perceptual Task\Tadpole_Perceptual_6.csv,22,1,1,13,14.01,retrieval,2,2,"teddybear_doll_b.bmp",2780,True,114461,147,173,"teddybear_doll_b.bmp",2799,"blacksquare.bmp",2825,
9/6/2014,11:59,C:\Documents and Settings\lab\Desktop\Tadpole\Perceptual Task\Tadpole_Perceptual_6.csv,22,1,1,13,14.02,retrieval,57,SPACE,"blacksquare.bmp",2820,True,114461,147,173,"teddybear_doll_b.bmp",2799,"blacksquare.bmp",2825,
9/6/2014,11:59,C:\Documents and Settings\lab\Desktop\Tadpole\Perceptual Task\Tadpole_Perceptual_6.csv,22,1,1,14,15.01,retrieval,2,2,"bunny_strawberry_b.bmp",2307,True,120258,200,227,"bunny_strawberry_b.bmp",2330,"blacksquare.bmp",2062,
9/6/2014,11:59,C:\Documents and Settings\lab\Desktop\Tadpole\Perceptual Task\Tadpole_Perceptual_6.csv,22,1,1,14,15.02,retrieval,57,SPACE,"blacksquare.bmp",2056,True,120258,200,227,"bunny_strawberry_b.bmp",2330,"blacksquare.bmp",2062,
9/6/2014,11:59,C:\Documents and Settings\lab\Desktop\Tadpole\Perceptual Task\Tadpole_Perceptual_6.csv,22,1,1,15,16.01,retrieval,2,2,"crayon_bottle_b.bmp",2284,True,124877,27,53,"crayon_bottle_b.bmp",2303,"blacksquare.bmp",3415,
9/6/2014,11:59,C:\Documents and Settings\lab\Desktop\Tadpole\Perceptual Task\Tadpole_Perceptual_6.csv,22,1,1,15,16.02,retrieval,57,SPACE,"blacksquare.bmp",3410,True,124877,27,53,"crayon_bottle_b.bmp",2303,"blacksquare.bmp",3415,
9/6/2014,11:59,C:\Documents and Settings\lab\Desktop\Tadpole\Perceptual Task\Tadpole_Perceptual_6.csv,22,1,1,16,17.01,retrieval,1,1,"pillow_egg_b.bmp",4218,True,130648,26,52,"pillow_egg_b.bmp",4245,"blacksquare.bmp",2343,
9/6/2014,11:59,C:\Documents and Settings\lab\Desktop\Tadpole\Perceptual Task\Tadpole_Perceptual_6.csv,22,1,1,16,17.02,retrieval,57,SPACE,"blacksquare.bmp",2334,True,130648,26,52,"pillow_egg_b.bmp",4245,"blacksquare.bmp",2343,
9/6/2014,11:59,C:\Documents and Settings\lab\Desktop\Tadpole\Perceptual Task\Tadpole_Perceptual_6.csv,22,1,1,17,18.01,retrieval,1,1,"leaf_jacket_b.bmp",2567,True,137288,27,53,"leaf_jacket_b.bmp",2584,"blacksquare.bmp",2384,
9/6/2014,11:59,C:\Documents and Settings\lab\Desktop\Tadpole\Perceptual Task\Tadpole_Perceptual_6.csv,22,1,1,17,18.02,retrieval,57,SPACE,"blacksquare.bmp",2380,True,137288,27,53,"leaf_jacket_b.bmp",2584,"blacksquare.bmp",2384,
9/6/2014,11:59,C:\Documents and Settings\lab\Desktop\Tadpole\Perceptual Task\Tadpole_Perceptual_6.csv,22,1,1,18,19.01,retrieval,2,2,"bear_apple_b.bmp",11139,True,142309,214,241,"bear_apple_b.bmp",11152,"blacksquare.bmp",2464,
9/6/2014,11:59,C:\Documents and Settings\lab\Desktop\Tadpole\Perceptual Task\Tadpole_Perceptual_6.csv,22,1,1,18,19.02,retrieval,57,SPACE,"blacksquare.bmp",2453,True,142309,214,241,"bear_apple_b.bmp",11152,"blacksquare.bmp",2464,
9/6/2014,11:59,C:\Documents and Settings\lab\Desktop\Tadpole\Perceptual Task\Tadpole_Perceptual_6.csv,22,1,1,19,20.01,retrieval,2,2,"elephant_broccoli_b.bmp",4762,False,156166,27,54,"elephant_broccoli_b.bmp",4779,"blacksquare.bmp",2358,
9/6/2014,11:59,C:\Documents and Settings\lab\Desktop\Tadpole\Perceptual Task\Tadpole_Perceptual_6.csv,22,1,1,19,20.02,retrieval,57,SPACE,"blacksquare.bmp",2344,True,156166,27,54,"elephant_broccoli_b.bmp",4779,"blacksquare.bmp",2358,
9/6/2014,11:59,C:\Documents and Settings\lab\Desktop\Tadpole\Perceptual Task\Tadpole_Perceptual_6.csv,22,1,1,20,21.01,retrieval,2,2,"hat_cake_b.bmp",3174,True,163357,548,575,"hat_cake_b.bmp",3199,"blacksquare.bmp",2076,
9/6/2014,11:59,C:\Documents and Settings\lab\Desktop\Tadpole\Perceptual Task\Tadpole_Perceptual_6.csv,22,1,1,20,21.02,retrieval,57,SPACE,"blacksquare.bmp",2071,True,163357,548,575,"hat_cake_b.bmp",3199,"blacksquare.bmp",2076,
9/6/2014,11:59,C:\Documents and Settings\lab\Desktop\Tadpole\Perceptual Task\Tadpole_Perceptual_6.csv,22,1,1,21,22.01,retrieval,2,2,"icecream_bicycle_b.bmp",4382,True,169207,27,53,"icecream_bicycle_b.bmp",4405,"whiteborder.bmp",844,
9/6/2014,11:59,C:\Documents and Settings\lab\Desktop\Tadpole\Perceptual Task\Tadpole_Perceptual_6.csv,22,1,1,21,22.02,retrieval,57,SPACE,"whiteborder.bmp",836,True,169207,27,53,"icecream_bicycle_b.bmp",4405,"whiteborder.bmp",844,
