Date,Time,File,Subj,Cond,Block,Trial,Order,task,Resp,Name,Stim,RT,Correct,Started@,LoadTime,TotalInt,Stim 1,Time 1,Stim 2,Time 2,
12/8/2015,11:35,C:\Documents and Settings\lab\Desktop\Tadpole\Perceptual Task\Tadpole_Perceptual_6.csv,94,1,1,1,1.01,retrieval,57,SPACE,"press spacebar to start perceptual task",2706,True,0,20,47,"press spacebar to start perceptual task",2718,
12/8/2015,11:35,C:\Documents and Settings\lab\Desktop\Tadpole\Perceptual Task\Tadpole_Perceptual_6.csv,94,1,1,1,2.01,retrieval,57,SPACE,"MutedBallie.avi (174x144)",329,True,2765,736,762,"MutedBallie.avi (174x144)",349,"blacksquare.bmp",911,
12/8/2015,11:35,C:\Documents and Settings\lab\Desktop\Tadpole\Perceptual Task\Tadpole_Perceptual_6.csv,94,1,1,1,2.02,retrieval,57,SPACE,"blacksquare.bmp",906,True,2765,736,762,"MutedBallie.avi (174x144)",349,"blacksquare.bmp",911,
12/8/2015,11:35,C:\Documents and Settings\lab\Desktop\Tadpole\Perceptual Task\Tadpole_Perceptual_6.csv,94,1,1,2,3.01,retrieval,2,2,"cookie_pizza_b.bmp",2108,True,4787,173,200,"cookie_pizza_b.bmp",2129,"blacksquare.bmp",1487,
12/8/2015,11:35,C:\Documents and Settings\lab\Desktop\Tadpole\Perceptual Task\Tadpole_Perceptual_6.csv,94,1,1,2,3.02,retrieval,57,SPACE,"blacksquare.bmp",1476,True,4787,173,200,"cookie_pizza_b.bmp",2129,"blacksquare.bmp",1487,
12/8/2015,11:35,C:\Documents and Settings\lab\Desktop\Tadpole\Perceptual Task\Tadpole_Perceptual_6.csv,94,1,1,3,4.01,retrieval,1,1,"sock_shoe_b.bmp",2454,True,8603,160,186,"sock_shoe_b.bmp",2478,"blacksquare.bmp",1071,
12/8/2015,11:35,C:\Documents and Settings\lab\Desktop\Tadpole\Perceptual Task\Tadpole_Perceptual_6.csv,94,1,1,3,4.02,retrieval,57,SPACE,"blacksquare.bmp",1062,True,8603,160,186,"sock_shoe_b.bmp",2478,"blacksquare.bmp",1071,
12/8/2015,11:35,C:\Documents and Settings\lab\Desktop\Tadpole\Perceptual Task\Tadpole_Perceptual_6.csv,94,1,1,4,5.01,retrieval,1,1,"balloons_duck_b.bmp",2173,True,12338,174,200,"balloons_duck_b.bmp",2197,"blacksquare.bmp",1031,
12/8/2015,11:35,C:\Documents and Settings\lab\Desktop\Tadpole\Perceptual Task\Tadpole_Perceptual_6.csv,94,1,1,4,5.02,retrieval,57,SPACE,"blacksquare.bmp",1019,True,12338,174,200,"balloons_duck_b.bmp",2197,"blacksquare.bmp",1031,
12/8/2015,11:35,C:\Documents and Settings\lab\Desktop\Tadpole\Perceptual Task\Tadpole_Perceptual_6.csv,94,1,1,5,6.01,retrieval,2,2,"flowers_cat_b.bmp",2025,True,15766,133,160,"flowers_cat_b.bmp",2048,"blacksquare.bmp",1152,
12/8/2015,11:35,C:\Documents and Settings\lab\Desktop\Tadpole\Perceptual Task\Tadpole_Perceptual_6.csv,94,1,1,5,6.02,retrieval,57,SPACE,"blacksquare.bmp",1149,True,15766,133,160,"flowers_cat_b.bmp",2048,"blacksquare.bmp",1152,
12/8/2015,11:35,C:\Documents and Settings\lab\Desktop\Tadpole\Perceptual Task\Tadpole_Perceptual_6.csv,94,1,1,6,7.01,retrieval,1,1,"pig_butterfly_b.bmp",2366,True,19126,508,535,"pig_butterfly_b.bmp",2383,"blacksquare.bmp",1125,
12/8/2015,11:35,C:\Documents and Settings\lab\Desktop\Tadpole\Perceptual Task\Tadpole_Perceptual_6.csv,94,1,1,6,7.02,retrieval,57,SPACE,"blacksquare.bmp",1112,True,19126,508,535,"pig_butterfly_b.bmp",2383,"blacksquare.bmp",1125,
12/8/2015,11:35,C:\Documents and Settings\lab\Desktop\Tadpole\Perceptual Task\Tadpole_Perceptual_6.csv,94,1,1,7,8.01,retrieval,1,1,"bread_tv_b.bmp",1721,True,23169,174,201,"bread_tv_b.bmp",1741,"blacksquare.bmp",1205,
12/8/2015,11:35,C:\Documents and Settings\lab\Desktop\Tadpole\Perceptual Task\Tadpole_Perceptual_6.csv,94,1,1,7,8.02,retrieval,57,SPACE,"blacksquare.bmp",1199,True,23169,174,201,"bread_tv_b.bmp",1741,"blacksquare.bmp",1205,
12/8/2015,11:35,C:\Documents and Settings\lab\Desktop\Tadpole\Perceptual Task\Tadpole_Perceptual_6.csv,94,1,1,8,9.01,retrieval,1,1,"ball_orange_b.bmp",2032,False,26316,120,147,"ball_orange_b.bmp",2048,"blacksquare.bmp",938,
12/8/2015,11:35,C:\Documents and Settings\lab\Desktop\Tadpole\Perceptual Task\Tadpole_Perceptual_6.csv,94,1,1,8,9.02,retrieval,57,SPACE,"blacksquare.bmp",928,True,26316,120,147,"ball_orange_b.bmp",2048,"blacksquare.bmp",938,
12/8/2015,11:35,C:\Documents and Settings\lab\Desktop\Tadpole\Perceptual Task\Tadpole_Perceptual_6.csv,94,1,1,9,10.01,retrieval,2,2,"fork_spoon_b.bmp",2551,True,29449,147,173,"fork_spoon_b.bmp",2572,"blacksquare.bmp",937,
12/8/2015,11:35,C:\Documents and Settings\lab\Desktop\Tadpole\Perceptual Task\Tadpole_Perceptual_6.csv,94,1,1,9,10.02,retrieval,57,SPACE,"blacksquare.bmp",933,True,29449,147,173,"fork_spoon_b.bmp",2572,"blacksquare.bmp",937,
12/8/2015,11:35,C:\Documents and Settings\lab\Desktop\Tadpole\Perceptual Task\Tadpole_Perceptual_6.csv,94,1,1,10,11.01,retrieval,1,1,"refrigerator_mouse_b.bmp",2282,True,33131,133,160,"refrigerator_mouse_b.bmp",2303,"blacksquare.bmp",977,
12/8/2015,11:35,C:\Documents and Settings\lab\Desktop\Tadpole\Perceptual Task\Tadpole_Perceptual_6.csv,94,1,1,10,11.02,retrieval,57,SPACE,"blacksquare.bmp",967,True,33131,133,160,"refrigerator_mouse_b.bmp",2303,"blacksquare.bmp",977,
12/8/2015,11:35,C:\Documents and Settings\lab\Desktop\Tadpole\Perceptual Task\Tadpole_Perceptual_6.csv,94,1,1,11,12.01,retrieval,1,1,"chair_grapes_b.bmp",1543,True,36571,254,282,"chair_grapes_b.bmp",1566,"blacksquare.bmp",1165,
12/8/2015,11:35,C:\Documents and Settings\lab\Desktop\Tadpole\Perceptual Task\Tadpole_Perceptual_6.csv,94,1,1,11,12.02,retrieval,57,SPACE,"blacksquare.bmp",1158,True,36571,254,282,"chair_grapes_b.bmp",1566,"blacksquare.bmp",1165,
12/8/2015,11:35,C:\Documents and Settings\lab\Desktop\Tadpole\Perceptual Task\Tadpole_Perceptual_6.csv,94,1,1,12,13.01,retrieval,1,1,"clock_dog_b.bmp",1373,True,39584,174,200,"clock_dog_b.bmp",1393,"blacksquare.bmp",1446,
12/8/2015,11:35,C:\Documents and Settings\lab\Desktop\Tadpole\Perceptual Task\Tadpole_Perceptual_6.csv,94,1,1,12,13.02,retrieval,57,SPACE,"blacksquare.bmp",1434,True,39584,174,200,"clock_dog_b.bmp",1393,"blacksquare.bmp",1446,
12/8/2015,11:35,C:\Documents and Settings\lab\Desktop\Tadpole\Perceptual Task\Tadpole_Perceptual_6.csv,94,1,1,13,14.01,retrieval,2,2,"teddybear_doll_b.bmp",1868,True,42623,107,134,"teddybear_doll_b.bmp",1888,"blacksquare.bmp",991,
12/8/2015,11:35,C:\Documents and Settings\lab\Desktop\Tadpole\Perceptual Task\Tadpole_Perceptual_6.csv,94,1,1,13,14.02,retrieval,57,SPACE,"blacksquare.bmp",981,True,42623,107,134,"teddybear_doll_b.bmp",1888,"blacksquare.bmp",991,
12/8/2015,11:35,C:\Documents and Settings\lab\Desktop\Tadpole\Perceptual Task\Tadpole_Perceptual_6.csv,94,1,1,14,15.01,retrieval,2,2,"bunny_strawberry_b.bmp",1519,True,45636,146,174,"bunny_strawberry_b.bmp",1539,"blacksquare.bmp",1138,
12/8/2015,11:35,C:\Documents and Settings\lab\Desktop\Tadpole\Perceptual Task\Tadpole_Perceptual_6.csv,94,1,1,14,15.02,retrieval,57,SPACE,"blacksquare.bmp",1126,True,45636,146,174,"bunny_strawberry_b.bmp",1539,"blacksquare.bmp",1138,
12/8/2015,11:35,C:\Documents and Settings\lab\Desktop\Tadpole\Perceptual Task\Tadpole_Perceptual_6.csv,94,1,1,15,16.01,retrieval,2,2,"crayon_bottle_b.bmp",1181,True,48487,134,161,"crayon_bottle_b.bmp",1205,"blacksquare.bmp",1312,
12/8/2015,11:35,C:\Documents and Settings\lab\Desktop\Tadpole\Perceptual Task\Tadpole_Perceptual_6.csv,94,1,1,15,16.02,retrieval,57,SPACE,"blacksquare.bmp",1302,True,48487,134,161,"crayon_bottle_b.bmp",1205,"blacksquare.bmp",1312,
12/8/2015,11:35,C:\Documents and Settings\lab\Desktop\Tadpole\Perceptual Task\Tadpole_Perceptual_6.csv,94,1,1,16,17.01,retrieval,1,1,"pillow_egg_b.bmp",1632,True,51165,120,147,"pillow_egg_b.bmp",1647,"blacksquare.bmp",1018,
12/8/2015,11:35,C:\Documents and Settings\lab\Desktop\Tadpole\Perceptual Task\Tadpole_Perceptual_6.csv,94,1,1,16,17.02,retrieval,57,SPACE,"blacksquare.bmp",1005,True,51165,120,147,"pillow_egg_b.bmp",1647,"blacksquare.bmp",1018,
12/8/2015,11:35,C:\Documents and Settings\lab\Desktop\Tadpole\Perceptual Task\Tadpole_Perceptual_6.csv,94,1,1,17,18.01,retrieval,1,1,"leaf_jacket_b.bmp",1650,True,53977,120,147,"leaf_jacket_b.bmp",1673,"blacksquare.bmp",1192,
12/8/2015,11:35,C:\Documents and Settings\lab\Desktop\Tadpole\Perceptual Task\Tadpole_Perceptual_6.csv,94,1,1,17,18.02,retrieval,57,SPACE,"blacksquare.bmp",1191,True,53977,120,147,"leaf_jacket_b.bmp",1673,"blacksquare.bmp",1192,
12/8/2015,11:35,C:\Documents and Settings\lab\Desktop\Tadpole\Perceptual Task\Tadpole_Perceptual_6.csv,94,1,1,18,19.01,retrieval,2,2,"bear_apple_b.bmp",2412,True,56989,161,187,"bear_apple_b.bmp",2437,"blacksquare.bmp",978,
12/8/2015,11:35,C:\Documents and Settings\lab\Desktop\Tadpole\Perceptual Task\Tadpole_Perceptual_6.csv,94,1,1,18,19.02,retrieval,57,SPACE,"blacksquare.bmp",968,True,56989,161,187,"bear_apple_b.bmp",2437,"blacksquare.bmp",978,
12/8/2015,11:35,C:\Documents and Settings\lab\Desktop\Tadpole\Perceptual Task\Tadpole_Perceptual_6.csv,94,1,1,19,20.01,retrieval,1,1,"elephant_broccoli_b.bmp",1871,True,60591,146,174,"elephant_broccoli_b.bmp",1887,"blacksquare.bmp",1005,
12/8/2015,11:35,C:\Documents and Settings\lab\Desktop\Tadpole\Perceptual Task\Tadpole_Perceptual_6.csv,94,1,1,19,20.02,retrieval,57,SPACE,"blacksquare.bmp",1002,True,60591,146,174,"elephant_broccoli_b.bmp",1887,"blacksquare.bmp",1005,
12/8/2015,11:35,C:\Documents and Settings\lab\Desktop\Tadpole\Perceptual Task\Tadpole_Perceptual_6.csv,94,1,1,20,21.01,retrieval,1,1,"hat_cake_b.bmp",1288,False,63657,120,147,"hat_cake_b.bmp",1312,"blacksquare.bmp",1326,
12/8/2015,11:35,C:\Documents and Settings\lab\Desktop\Tadpole\Perceptual Task\Tadpole_Perceptual_6.csv,94,1,1,20,21.02,retrieval,57,SPACE,"blacksquare.bmp",1315,True,63657,120,147,"hat_cake_b.bmp",1312,"blacksquare.bmp",1326,
12/8/2015,11:35,C:\Documents and Settings\lab\Desktop\Tadpole\Perceptual Task\Tadpole_Perceptual_6.csv,94,1,1,21,22.01,retrieval,2,2,"icecream_bicycle_b.bmp",1337,True,66442,201,227,"icecream_bicycle_b.bmp",1353,"whiteborder.bmp",267,
12/8/2015,11:35,C:\Documents and Settings\lab\Desktop\Tadpole\Perceptual Task\Tadpole_Perceptual_6.csv,94,1,1,21,22.02,retrieval,57,SPACE,"whiteborder.bmp",256,True,66442,201,227,"icecream_bicycle_b.bmp",1353,"whiteborder.bmp",267,
