"","ID","RT","acc","trial","gender","ethnicity","race","income","mother_edu","father_edu","age_years","age_months","condition","drop","target","familiarity","response","item","avg_acc","similar","trans","acc_et"
"1","101",3649,1,"1","Male","Caucasian",NA,"","e","e",2.52,30.21,4,0,"Chair","1","Left","ChairRefrigerator",0.85,"similar",NA,NA
"2","102",3652,1,"1","Male ","Caucasian/ Asian-American",NA,"e","g","e",2.38,28.57,5,0,"Bear","1","Right","ElephantBear",0.85,"similar",NA,NA
"3","103",4634,1,"1","Female","Caucasian ",NA,"e","c","b",2.68,32.19,6,0,"Pizza","1","Right","CookiePizza",0.9,"similar",NA,NA
"4","106",1982,1,"1","Female","Caucasian","","f","e","e",2.55,30.58,2,0,"Cookie","1","Left","CookiePizza",0.684210526315789,"similar",NA,NA
"5","107",15747,0,"1","Male","African American, Caucasian, American Indian, Asian-American",NA,"d","g","c",2.6,31.17,3,0,"Cake","1","Right","CakeHat",0.6,"similar",NA,NA
"6","108",3446,0,"1","Male","Caucasian",NA,"f","e","g",2.43,29.16,4,0,"Chair","1","Right","ChairRefrigerator",0.65,"similar",NA,NA
"7","109",3349,0,"1","Male","Caucasion, Asian-American","","f","e","g",2.39,28.67,1,0,"Elephant","1","Right","ElephantBear",0.8,"similar",NA,NA
"8","110",2320,1,"1","Male","Caucasian","","f","e","e",2.44,29.29,6,0,"Pizza","1","Right","CookiePizza",0.9,"similar",NA,NA
"9","111",12386,1,"1","Female","Caucasian","","f","e","e",2.64,31.69,7,0,"Hat","1","Right","CakeHat",0.85,"similar",NA,NA
"10","112",1613,0,"1","Male","Caucasian","","f","e","e",2.65,31.86,8,0,"Refrigerator","1","Left","ChairRefrigerator",0.75,"similar",NA,NA
"11","113",8067,0,"1","Male","Caucasiasian-American","","f","e","b",2.55,30.54,1,0,"Elephant","1","Right","ElephantBear",0.75,"similar",NA,NA
"12","114",4994,1,"1","Male","Non-Hispanic","Caucasian","d","d","d",2.33,27.95,2,0,"Cookie","1","Left","CookiePizza",0.95,"similar",NA,NA
"13","116",6159,0,"1","Female","Asian-Russian","","d","e","d",2.49,29.85,4,0,"Chair","1","Right","ChairRefrigerator",0.55,"similar",NA,NA
"14","117",4523,1,"1","Male","Non-Hispanic","Caucasian","e","e","g",2.59,31.04,5,0,"Bear","1","Right","ElephantBear",0.95,"similar",NA,NA
"15","118",6261,1,"1","Male","Non-Hispanic","Caucasian","f","e","g",2.28,27.39,6,0,"Pizza","1","Right","CookiePizza",0.75,"similar",NA,NA
"16","121",6001,0,"1","Female","African American, Caucasian, American Indian, Asian-American","Caucasian","a","c","",2.7,32.45,1,0,"Elephant","1","Right","ElephantBear",0.55,"similar",NA,NA
"17","123",3115,1,"1","Male","Caucasian","","f","g","g",2.64,31.73,3,0,"Cake","1","Left","CakeHat",0.85,"similar",NA,NA
"18","34",3652,1,"1","Female","Hispanic","Caucasian","d","e","e",2.35,28.21,2,0,"Cookie","1","Left","CookiePizza",0.6,"similar",NA,NA
"19","35",5981,0,"1","Male","Non-Hispanic","Asian & Caucasian","f","e","e",2.27,27.25,3,0,"Cake","1","Right","CakeHat",0.6,"similar",NA,NA
"20","36",3464,1,"1","Female","Non-Hispanic","Caucasian","f","d","g",2.24,26.83,4,0,"Chair","1","Left","ChairRefrigerator",0.95,"similar",NA,NA
"21","37",2719,0,"1","Female","Non-Hispanic","Caucasian","f","e","e",2.2,26.4,5,0,"Bear","1","Left","ElephantBear",0.55,"similar",NA,NA
"22","38",6459,0,"1","Female","Non-Hispanic","Asian & Caucasian","f","d","e",2.21,26.5,6,0,"Pizza","1","Left","CookiePizza",0.8,"similar",NA,NA
"23","39",4292,1,"1","Male","Non-Hispanic","Caucasian","c","b","b",2.19,26.24,7,0,"Hat","1","Right","CakeHat",0.9,"similar",NA,NA
"24","40",13753,0,"1","Male","Hispanic","Caucasian","e","g","g",2.33,27.95,8,0,"Refrigerator","1","Left","ChairRefrigerator",0.647058823529412,"similar",NA,NA
"25","41",9145,0,"1","Female","Hispanic","","f","d","d",2.23,26.79,1,0,"Elephant","1","Right","ElephantBear",0.55,"similar",NA,NA
"26","43",7846,1,"1","Female","Not Hispanic","Caucasian","f","g","e",2.33,27.95,3,0,"Cake","1","Left","CakeHat",0.85,"similar",NA,NA
"27","44",9396,1,"1","Male","Not Hispanic","Caucasian","b","d","b",2.27,27.19,4,0,"Chair","1","Left","ChairRefrigerator",0.9,"similar",NA,NA
"28","45",3795,1,"1","Female","Not Hispanic","Caucasian","","d","g",2.39,28.73,5,0,"Bear","1","Right","ElephantBear",0.944444444444444,"similar",NA,NA
"29","46",5414,0,"1","Male","Not Hispanic","Caucasian","e","e","g",2.33,27.91,6,0,"Pizza","1","Left","CookiePizza",0.85,"similar",NA,NA
"30","47",9984,0,"1","Male","Not Hispanic","Asian, Caucasian","f","g","g",2.46,29.52,7,0,"Hat","1","Left","CakeHat",0.65,"similar",NA,NA
"31","48",12721,0,"1","Female","Not Hispanic","Native Hawaiian & Caucasian","c","d","f",2.26,27.16,8,0,"Refrigerator","1","Left","ChairRefrigerator",0.9,"similar",NA,NA
"32","49",2288,0,"1","Female","Not Hispanic","Native Hawaiian & Caucasian","c","d","f",2.26,27.16,1,0,"Elephant","1","Right","ElephantBear",0.85,"similar",NA,NA
"33","50",5179,0,"1","Female","Not Hispanic","Asian and Caucasian","d","e","g",2.22,26.7,2,0,"Cookie","1","Right","CookiePizza",0.7,"similar",NA,NA
"34","51",10209,0,"1","Male","Not Hispanic","Caucasian","f","g","e",2.47,29.69,3,0,"Cake","1","Right","CakeHat",0.9,"similar",NA,NA
"35","52",23130,1,"1","Female","Not Hispanic","Caucasian","e","e","c",2.2,26.37,4,0,"Chair","1","Left","ChairRefrigerator",0.8,"similar",NA,NA
"36","53",7753,1,"1","Male","Not Hispanic","Caucasian","e","c","e",2.3,27.55,5,0,"Bear","1","Right","ElephantBear",0.75,"similar",NA,NA
"37","54",3703,1,"1","Female","Hispanic","Caucasian","f","c","d",2.16,25.94,6,0,"Pizza","1","Right","CookiePizza",0.75,"similar",NA,NA
"38","56",3221,1,"1","Female","Not Hispanic","Caucasian","f","g","e",2.45,29.39,8,0,"Refrigerator","1","Right","ChairRefrigerator",0.9,"similar",NA,NA
"39","58",4480,0,"1","Female","Not Hispanic","African American/Caucasian","f","g","c",2.33,27.95,2,0,"Cookie","1","Right","CookiePizza",0.578947368421053,"similar",NA,NA
"40","59",6445,1,"1","Male","Not Hispanic","Caucasian","d","d","e",2.27,27.19,3,0,"Cake","1","Left","CakeHat",0.85,"similar",NA,NA
"41","60",4096,0,"1","Female","Not Hispanic","Caucasian","c","e","c",2.31,27.68,4,0,"Chair","1","Right","ChairRefrigerator",0.55,"similar",NA,NA
"42","62",4782,0,"1","Female","1/8 Hispanic","Caucasian","d","e","b",2.34,28.04,6,0,"Pizza","1","Left","CookiePizza",0.85,"similar",NA,NA
"43","63",3274,1,"1","Male","Hispanic","","e","c","c",2.36,28.34,7,0,"Hat","1","Right","CakeHat",0.85,"similar",NA,NA
"44","64",4550,1,"1","","Not Hispanic","Caucasian","c","c","d",2.41,28.96,8,0,"Refrigerator","1","Right","ChairRefrigerator",0.75,"similar",NA,NA
"45","65",3553,1,"1","Male","","Caucasian","f","e","e",2.48,29.72,1,0,"Elephant","1","Left","ElephantBear",0.9,"similar",NA,NA
"46","66",7393,0,"1","Female","Not Hispanic","Asian/Caucasian","f","g","f",2.41,28.96,2,0,"Cookie","1","Right","CookiePizza",0.8,"similar",1,0
"47","67",4472,1,"1","Female","Not Hispanic","Caucasian","e","e","e",2.33,28.01,3,0,"Cake","1","Left","CakeHat",0.9,"similar",NA,NA
"48","68",4719,1,"1","Male","Not Hispanic","Caucasian","e","c","d",2.32,27.88,4,0,"Chair","1","Left","ChairRefrigerator",0.7,"similar",NA,NA
"49","69",6995,1,"1","Male","Not Hispanic","Caucasian","f","g","g",2.36,28.37,5,0,"Bear","1","Right","ElephantBear",0.85,"similar",NA,NA
"50","71",5600,0,"1","Female","Not Hispanic","Caucasian","e","d","b",2.56,30.71,7,0,"Hat","0","Left","CakeHat",0.75,"similar",NA,NA
"51","73",2916,1,"1","Male","Not Hispanic","Caucasian","e","e","e",2.27,27.19,1,0,"Elephant","1","Left","ElephantBear",0.7,"similar",NA,NA
"52","74",5149,1,"1","Male","Not Hispanic","Caucasian","f","d","h",2.52,30.21,2,0,"Cookie","1","Left","CookiePizza",0.85,"similar",NA,NA
"53","75",4770,0,"1","Female","Not Hispanic","Caucasian","f","e","b",2.56,30.71,3,0,"Cake","1","Right","CakeHat",0.8,"similar",NA,NA
"54","76",4999,1,"1","Female","Not Hispanic","Caucasian","d","d","d",2.22,26.7,4,0,"Chair","1","Left","ChairRefrigerator",0.9,"similar",NA,NA
"55","77",8277,0,"1","Female","Not Hispanic","African American/Caucasian","e","d","d",2.49,29.85,5,0,"Bear","1","Left","ElephantBear",0.631578947368421,"similar",NA,NA
"56","78",3539,0,"1","Female","Not Hispanic","Caucasian","f","c","d",2.43,29.16,6,0,"Pizza","1","Left","CookiePizza",0.95,"similar",NA,NA
"57","79",5558,0,"1","Male","Hispanic","Caucasian","f","e","e",2.49,29.85,7,0,"Hat","1","Left","CakeHat",0.7,"similar",NA,NA
"58","80",4004,0,"1","Male","Not Hispanic","Caucasian","f","e","e",2.14,25.68,8,0,"Refrigerator","1","Left","ChairRefrigerator",0.578947368421053,"similar",NA,NA
"59","81",8530,1,"1","Male ","Hispanic","Caucasian","d","c","d",2.36,28.27,1,0,"Elephant","1","Left","ElephantBear",0.95,"similar",NA,NA
"60","83",3343,1,"1","Male ","Not hipanic ","Caucasian ","d","g","g",2.41,28.9,3,0,"Cake","1","Left","CakeHat",0.75,"similar",NA,NA
"61","86",2272,1,"1","Female","Not Hispanic","Caucasian","f","g","d",2.21,26.53,6,0,"Pizza","1","Right","CookiePizza",0.7,"similar",NA,NA
"62","87",5520,1,"1","Male","Hispanic ","Caucasian","e","g","e",2.34,28.11,7,0,"Hat","1","Right","CakeHat",0.7,"similar",NA,NA
"63","88",6403,0,"1","Male ","Not Hispanic ","Native Hawaiian & Caucasian","c","c","g",2.25,26.99,8,0,"Refrigerator","1","Left","ChairRefrigerator",0.882352941176471,"similar",NA,NA
"64","90",3130,1,"1","Male","Hispanic","Caucasian","d","g","e",2.52,30.18,2,0,"Cookie","1","Left","CookiePizza",0.9,"similar",4,1
"65","91",3308,1,"1","Male","Not Hispanic","African American","f","g","c",2.46,29.49,3,0,"Cake","1","Left","CakeHat",0.65,"similar",NA,NA
"66","93",5459,1,"1","Female","Not Hispanic","Asian","","","",2.68,32.15,5,0,"Bear","1","Right","ElephantBear",0.9,"similar",NA,NA
"67","95",5268,1,"1","Female","Not Hispanic ","Caucasian","e","e","g",2.85,34.16,6,0,"Pizza","1","Right","CookiePizza",0.95,"similar",3,1
"68","97",4521,1,"1"," Female","Not Hispanic ","Caucasian","d","c","c",2.34,28.11,8,0,"Refrigerator","1","Right","ChairRefrigerator",0.85,"similar",NA,NA
"69","98",7975,0,"1","Male","Hispanic","American Indian or Alaskan / Caucasian","e","g","d",2.64,31.73,1,0,"Elephant","1","Right","ElephantBear",0.736842105263158,"similar",NA,NA
"70","101",2678,1,"2","Male","Caucasian",NA,"","e","e",2.52,30.21,4,0,"Balloons","1","Left","BalloonsGrapes",0.85,"similar",NA,NA
"71","102",3526,1,"2","Male ","Caucasian/ Asian-American",NA,"e","g","e",2.38,28.57,5,0,"Bicycle","1","Right","ClockBicycle",0.85,"similar",NA,NA
"72","103",3034,1,"2","Female","Caucasian ",NA,"e","c","b",2.68,32.19,6,0,"Sock","1","Right","ShoeSock",0.9,"similar",NA,NA
"73","106",4180,1,"2","Female","Caucasian","","f","e","e",2.55,30.58,2,0,"Shoe","1","Left","ShoeSock",0.684210526315789,"similar",NA,NA
"74","107",2169,0,"2","Male","African American, Caucasian, American Indian, Asian-American",NA,"d","g","c",2.6,31.17,3,0,"Jacket","1","Right","JacketLeaf",0.6,"similar",NA,NA
"75","108",2159,1,"2","Male","Caucasian",NA,"f","e","g",2.43,29.16,4,0,"Balloons","1","Left","BalloonsGrapes",0.65,"similar",NA,NA
"76","109",1851,1,"2","Male","Caucasion, Asian-American","","f","e","g",2.39,28.67,1,0,"Clock","1","Left","ClockBicycle",0.8,"similar",NA,NA
"77","110",1557,0,"2","Male","Caucasian","","f","e","e",2.44,29.29,6,0,"Sock","1","Left","ShoeSock",0.9,"similar",NA,NA
"78","111",4383,1,"2","Female","Caucasian","","f","e","e",2.64,31.69,7,0,"Leaf","1","Right","JacketLeaf",0.85,"similar",NA,NA
"79","112",3435,1,"2","Male","Caucasian","","f","e","e",2.65,31.86,8,0,"Grapes","1","Right","BalloonsGrapes",0.75,"similar",NA,NA
"80","113",4092,1,"2","Male","Caucasiasian-American","","f","e","b",2.55,30.54,1,0,"Clock","1","Left","ClockBicycle",0.75,"similar",NA,NA
"81","114",9926,1,"2","Male","Non-Hispanic","Caucasian","d","d","d",2.33,27.95,2,0,"Shoe","1","Left","ShoeSock",0.95,"similar",NA,NA
"82","116",2369,1,"2","Female","Asian-Russian","","d","e","d",2.49,29.85,4,0,"Balloons","1","Left","BalloonsGrapes",0.55,"similar",NA,NA
"83","117",2166,1,"2","Male","Non-Hispanic","Caucasian","e","e","g",2.59,31.04,5,0,"Bicycle","1","Right","ClockBicycle",0.95,"similar",NA,NA
"84","118",3271,1,"2","Male","Non-Hispanic","Caucasian","f","e","g",2.28,27.39,6,0,"Sock","1","Right","ShoeSock",0.75,"similar",NA,NA
"85","121",3299,1,"2","Female","African American, Caucasian, American Indian, Asian-American","Caucasian","a","c","",2.7,32.45,1,0,"Clock","1","Left","ClockBicycle",0.55,"similar",NA,NA
"86","123",1693,1,"2","Male","Caucasian","","f","g","g",2.64,31.73,3,0,"Jacket","1","Left","JacketLeaf",0.85,"similar",NA,NA
"87","34",6701,0,"2","Female","Hispanic","Caucasian","d","e","e",2.35,28.21,2,0,"Shoe","1","Right","ShoeSock",0.6,"similar",NA,NA
"88","35",2468,1,"2","Male","Non-Hispanic","Asian & Caucasian","f","e","e",2.27,27.25,3,0,"Jacket","1","Left","JacketLeaf",0.6,"similar",NA,NA
"89","36",4028,1,"2","Female","Non-Hispanic","Caucasian","f","d","g",2.24,26.83,4,0,"Balloons","1","Left","BalloonsGrapes",0.95,"similar",NA,NA
"90","37",2303,1,"2","Female","Non-Hispanic","Caucasian","f","e","e",2.2,26.4,5,0,"Bicycle","1","Right","ClockBicycle",0.55,"similar",NA,NA
"91","38",3844,1,"2","Female","Non-Hispanic","Asian & Caucasian","f","d","e",2.21,26.5,6,0,"Sock","1","Right","ShoeSock",0.8,"similar",NA,NA
"92","39",5058,1,"2","Male","Non-Hispanic","Caucasian","c","b","b",2.19,26.24,7,0,"Leaf","1","Right","JacketLeaf",0.9,"similar",NA,NA
"93","40",15964,NA,"2","Male","Hispanic","Caucasian","e","g","g",2.33,27.95,8,0,"Grapes","0",NA,NA,0.647058823529412,"similar",NA,NA
"94","41",3083,1,"2","Female","Hispanic","","f","d","d",2.23,26.79,1,0,"Clock","1","Left","ClockBicycle",0.55,"similar",NA,NA
"95","43",4626,1,"2","Female","Not Hispanic","Caucasian","f","g","e",2.33,27.95,3,0,"Jacket","1","Left","JacketLeaf",0.85,"similar",NA,NA
"96","44",4735,1,"2","Male","Not Hispanic","Caucasian","b","d","b",2.27,27.19,4,0,"Balloons","1","Left","BalloonsGrapes",0.9,"similar",NA,NA
"97","45",8651,1,"2","Female","Not Hispanic","Caucasian","","d","g",2.39,28.73,5,0,"Bicycle","1","Right","ClockBicycle",0.944444444444444,"similar",NA,NA
"98","46",2827,1,"2","Male","Not Hispanic","Caucasian","e","e","g",2.33,27.91,6,0,"Sock","1","Right","ShoeSock",0.85,"similar",NA,NA
"99","47",2712,1,"2","Male","Not Hispanic","Asian, Caucasian","f","g","g",2.46,29.52,7,0,"Leaf","1","Right","JacketLeaf",0.65,"similar",NA,NA
"100","48",6184,1,"2","Female","Not Hispanic","Native Hawaiian & Caucasian","c","d","f",2.26,27.16,8,0,"Grapes","1","Right","BalloonsGrapes",0.9,"similar",NA,NA
"101","49",3542,1,"2","Female","Not Hispanic","Native Hawaiian & Caucasian","c","d","f",2.26,27.16,1,0,"Clock","1","Left","ClockBicycle",0.85,"similar",NA,NA
"102","50",2325,1,"2","Female","Not Hispanic","Asian and Caucasian","d","e","g",2.22,26.7,2,0,"Shoe","1","Left","ShoeSock",0.7,"similar",NA,NA
"103","51",3376,1,"2","Male","Not Hispanic","Caucasian","f","g","e",2.47,29.69,3,0,"Jacket","1","Left","JacketLeaf",0.9,"similar",NA,NA
"104","52",3507,1,"2","Female","Not Hispanic","Caucasian","e","e","c",2.2,26.37,4,0,"Balloons","1","Left","BalloonsGrapes",0.8,"similar",NA,NA
"105","53",4296,1,"2","Male","Not Hispanic","Caucasian","e","c","e",2.3,27.55,5,0,"Bicycle","1","Right","ClockBicycle",0.75,"similar",NA,NA
"106","54",5169,1,"2","Female","Hispanic","Caucasian","f","c","d",2.16,25.94,6,0,"Sock","1","Right","ShoeSock",0.75,"similar",0,1
"107","56",3410,1,"2","Female","Not Hispanic","Caucasian","f","g","e",2.45,29.39,8,0,"Grapes","1","Right","BalloonsGrapes",0.9,"similar",NA,NA
"108","58",6143,1,"2","Female","Not Hispanic","African American/Caucasian","f","g","c",2.33,27.95,2,0,"Shoe","1","Left","ShoeSock",0.578947368421053,"similar",NA,NA
"109","59",5476,0,"2","Male","Not Hispanic","Caucasian","d","d","e",2.27,27.19,3,0,"Jacket","1","Right","JacketLeaf",0.85,"similar",NA,NA
"110","60",4861,0,"2","Female","Not Hispanic","Caucasian","c","e","c",2.31,27.68,4,0,"Balloons","1","Right","BalloonsGrapes",0.55,"similar",NA,NA
"111","62",3197,1,"2","Female","1/8 Hispanic","Caucasian","d","e","b",2.34,28.04,6,0,"Sock","1","Right","ShoeSock",0.85,"similar",NA,NA
"112","63",2763,0,"2","Male","Hispanic","","e","c","c",2.36,28.34,7,0,"Leaf","0","Left","JacketLeaf",0.85,"similar",NA,NA
"113","64",6019,1,"2","","Not Hispanic","Caucasian","c","c","d",2.41,28.96,8,0,"Grapes","1","Right","BalloonsGrapes",0.75,"similar",NA,NA
"114","65",6685,1,"2","Male","","Caucasian","f","e","e",2.48,29.72,1,0,"Clock","1","Left","ClockBicycle",0.9,"similar",NA,NA
"115","66",2855,1,"2","Female","Not Hispanic","Asian/Caucasian","f","g","f",2.41,28.96,2,0,"Shoe","1","Left","ShoeSock",0.8,"similar",2,1
"116","67",2072,1,"2","Female","Not Hispanic","Caucasian","e","e","e",2.33,28.01,3,0,"Jacket","1","Left","JacketLeaf",0.9,"similar",NA,NA
"117","68",4182,0,"2","Male","Not Hispanic","Caucasian","e","c","d",2.32,27.88,4,0,"Balloons","1","Right","BalloonsGrapes",0.7,"similar",NA,NA
"118","69",2187,1,"2","Male","Not Hispanic","Caucasian","f","g","g",2.36,28.37,5,0,"Bicycle","1","Right","ClockBicycle",0.85,"similar",NA,NA
"119","71",3565,1,"2","Female","Not Hispanic","Caucasian","e","d","b",2.56,30.71,7,0,"Leaf","1","Right","JacketLeaf",0.75,"similar",NA,NA
"120","73",2871,0,"2","Male","Not Hispanic","Caucasian","e","e","e",2.27,27.19,1,0,"Clock","1","Right","ClockBicycle",0.7,"similar",NA,NA
"121","74",3105,1,"2","Male","Not Hispanic","Caucasian","f","d","h",2.52,30.21,2,0,"Shoe","1","Left","ShoeSock",0.85,"similar",NA,NA
"122","75",3022,1,"2","Female","Not Hispanic","Caucasian","f","e","b",2.56,30.71,3,0,"Jacket","1","Left","JacketLeaf",0.8,"similar",NA,NA
"123","76",3915,1,"2","Female","Not Hispanic","Caucasian","d","d","d",2.22,26.7,4,0,"Balloons","1","Left","BalloonsGrapes",0.9,"similar",NA,NA
"124","77",2599,1,"2","Female","Not Hispanic","African American/Caucasian","e","d","d",2.49,29.85,5,0,"Bicycle","1","Right","ClockBicycle",0.631578947368421,"similar",NA,NA
"125","78",2811,1,"2","Female","Not Hispanic","Caucasian","f","c","d",2.43,29.16,6,0,"Sock","1","Right","ShoeSock",0.95,"similar",NA,NA
"126","79",3707,1,"2","Male","Hispanic","Caucasian","f","e","e",2.49,29.85,7,0,"Leaf","1","Right","JacketLeaf",0.7,"similar",NA,NA
"127","80",3428,1,"2","Male","Not Hispanic","Caucasian","f","e","e",2.14,25.68,8,0,"Grapes","1","Right","BalloonsGrapes",0.578947368421053,"similar",NA,NA
"128","81",6332,1,"2","Male ","Hispanic","Caucasian","d","c","d",2.36,28.27,1,0,"Clock","1","Left","ClockBicycle",0.95,"similar",NA,NA
"129","83",2828,1,"2","Male ","Not hipanic ","Caucasian ","d","g","g",2.41,28.9,3,0,"Jacket","0","Left","JacketLeaf",0.75,"similar",0,1
"130","86",2145,1,"2","Female","Not Hispanic","Caucasian","f","g","d",2.21,26.53,6,0,"Sock","1","Right","ShoeSock",0.7,"similar",NA,NA
"131","87",2792,0,"2","Male","Hispanic ","Caucasian","e","g","e",2.34,28.11,7,0,"Leaf","1","Left","JacketLeaf",0.7,"similar",NA,NA
"132","88",7201,1,"2","Male ","Not Hispanic ","Native Hawaiian & Caucasian","c","c","g",2.25,26.99,8,0,"Grapes","1","Right","BalloonsGrapes",0.882352941176471,"similar",NA,NA
"133","90",2656,1,"2","Male","Hispanic","Caucasian","d","g","e",2.52,30.18,2,0,"Shoe","1","Left","ShoeSock",0.9,"similar",1,1
"134","91",8818,1,"2","Male","Not Hispanic","African American","f","g","c",2.46,29.49,3,0,"Jacket","1","Left","JacketLeaf",0.65,"similar",NA,NA
"135","93",3459,1,"2","Female","Not Hispanic","Asian","","","",2.68,32.15,5,0,"Bicycle","1","Right","ClockBicycle",0.9,"similar",NA,NA
"136","95",3829,1,"2","Female","Not Hispanic ","Caucasian","e","e","g",2.85,34.16,6,0,"Sock","1","Right","ShoeSock",0.95,"similar",1,1
"137","97",11717,1,"2"," Female","Not Hispanic ","Caucasian","d","c","c",2.34,28.11,8,0,"Grapes","1","Right","BalloonsGrapes",0.85,"similar",NA,NA
"138","98",5141,1,"2","Male","Hispanic","American Indian or Alaskan / Caucasian","e","g","d",2.64,31.73,1,0,"Clock","0","Left","ClockBicycle",0.736842105263158,"similar",NA,NA
"139","101",2395,1,"3","Male","Caucasian",NA,"","e","e",2.52,30.21,4,0,"Ball","1","Right","SpoonBall",0.85,"dissimilar",NA,NA
"140","102",2773,1,"3","Male ","Caucasian/ Asian-American",NA,"e","g","e",2.38,28.57,5,0,"Cake","1","Left","CakeDoll",0.85,"dissimilar",NA,NA
"141","103",3540,1,"3","Female","Caucasian ",NA,"e","c","b",2.68,32.19,6,0,"Balloons","1","Left","BalloonsDuck ",0.9,"dissimilar",NA,NA
"142","106",2629,1,"3","Female","Caucasian","","f","e","e",2.55,30.58,2,0,"Duck","1","Right","BalloonsDuck ",0.684210526315789,"dissimilar",NA,NA
"143","107",2411,1,"3","Male","African American, Caucasian, American Indian, Asian-American",NA,"d","g","c",2.6,31.17,3,0,"Bear","1","Right","AppleBear",0.6,"dissimilar",NA,NA
"144","108",3652,1,"3","Male","Caucasian",NA,"f","e","g",2.43,29.16,4,0,"Ball","1","Right","SpoonBall",0.65,"dissimilar",NA,NA
"145","109",3087,1,"3","Male","Caucasion, Asian-American","","f","e","g",2.39,28.67,1,0,"Doll","1","Right","CakeDoll",0.8,"dissimilar",NA,NA
"146","110",2639,1,"3","Male","Caucasian","","f","e","e",2.44,29.29,6,0,"Balloons","1","Left","BalloonsDuck ",0.9,"dissimilar",NA,NA
"147","111",2504,1,"3","Female","Caucasian","","f","e","e",2.64,31.69,7,0,"Apple","1","Left","AppleBear",0.85,"dissimilar",NA,NA
"148","112",1622,1,"3","Male","Caucasian","","f","e","e",2.65,31.86,8,0,"Spoon","1","Left","SpoonBall",0.75,"dissimilar",2,1
"149","113",12155,0,"3","Male","Caucasiasian-American","","f","e","b",2.55,30.54,1,0,"Doll","1","Left","CakeDoll",0.75,"dissimilar",NA,NA
"150","114",8541,1,"3","Male","Non-Hispanic","Caucasian","d","d","d",2.33,27.95,2,0,"Duck","1","Right","BalloonsDuck ",0.95,"dissimilar",NA,NA
"151","116",1725,1,"3","Female","Asian-Russian","","d","e","d",2.49,29.85,4,0,"Ball","1","Right","SpoonBall",0.55,"dissimilar",NA,NA
"152","117",2137,1,"3","Male","Non-Hispanic","Caucasian","e","e","g",2.59,31.04,5,0,"Cake","1","Left","CakeDoll",0.95,"dissimilar",NA,NA
"153","118",2141,1,"3","Male","Non-Hispanic","Caucasian","f","e","g",2.28,27.39,6,0,"Balloons","1","Left","BalloonsDuck ",0.75,"dissimilar",NA,NA
"154","121",2135,1,"3","Female","African American, Caucasian, American Indian, Asian-American","Caucasian","a","c","",2.7,32.45,1,0,"Doll","1","Right","CakeDoll",0.55,"dissimilar",NA,NA
"155","123",2118,1,"3","Male","Caucasian","","f","g","g",2.64,31.73,3,0,"Bear","1","Right","AppleBear",0.85,"dissimilar",NA,NA
"156","34",4379,0,"3","Female","Hispanic","Caucasian","d","e","e",2.35,28.21,2,0,"Duck","1","Left","BalloonsDuck ",0.6,"dissimilar",NA,NA
"157","35",4231,1,"3","Male","Non-Hispanic","Asian & Caucasian","f","e","e",2.27,27.25,3,0,"Bear","1","Right","AppleBear",0.6,"dissimilar",NA,NA
"158","36",2885,1,"3","Female","Non-Hispanic","Caucasian","f","d","g",2.24,26.83,4,0,"Ball","1","Right","SpoonBall",0.95,"dissimilar",NA,NA
"159","37",2393,1,"3","Female","Non-Hispanic","Caucasian","f","e","e",2.2,26.4,5,0,"Cake","1","Left","CakeDoll",0.55,"dissimilar",NA,NA
"160","38",3786,1,"3","Female","Non-Hispanic","Asian & Caucasian","f","d","e",2.21,26.5,6,0,"Balloons","1","Left","BalloonsDuck ",0.8,"dissimilar",NA,NA
"161","39",12952,1,"3","Male","Non-Hispanic","Caucasian","c","b","b",2.19,26.24,7,0,"Apple","1","Left","AppleBear",0.9,"dissimilar",NA,NA
"162","40",15821,1,"3","Male","Hispanic","Caucasian","e","g","g",2.33,27.95,8,0,"Spoon","1","Left","SpoonBall",0.647058823529412,"dissimilar",NA,NA
"163","41",4306,1,"3","Female","Hispanic","","f","d","d",2.23,26.79,1,0,"Doll","1","Right","CakeDoll",0.55,"dissimilar",NA,NA
"164","43",4293,1,"3","Female","Not Hispanic","Caucasian","f","g","e",2.33,27.95,3,0,"Bear","1","Right","AppleBear",0.85,"dissimilar",NA,NA
"165","44",3816,1,"3","Male","Not Hispanic","Caucasian","b","d","b",2.27,27.19,4,0,"Ball","1","Right","SpoonBall",0.9,"dissimilar",NA,NA
"166","45",3743,1,"3","Female","Not Hispanic","Caucasian","","d","g",2.39,28.73,5,0,"Cake","1","Left","CakeDoll",0.944444444444444,"dissimilar",NA,NA
"167","46",1368,1,"3","Male","Not Hispanic","Caucasian","e","e","g",2.33,27.91,6,0,"Balloons","1","Left","BalloonsDuck ",0.85,"dissimilar",NA,NA
"168","47",1796,1,"3","Male","Not Hispanic","Asian, Caucasian","f","g","g",2.46,29.52,7,0,"Apple","1","Left","AppleBear",0.65,"dissimilar",NA,NA
"169","48",2224,1,"3","Female","Not Hispanic","Native Hawaiian & Caucasian","c","d","f",2.26,27.16,8,0,"Spoon","1","Left","SpoonBall",0.9,"dissimilar",NA,NA
"170","49",4834,0,"3","Female","Not Hispanic","Native Hawaiian & Caucasian","c","d","f",2.26,27.16,1,0,"Doll","1","Left","CakeDoll",0.85,"dissimilar",NA,NA
"171","50",3058,1,"3","Female","Not Hispanic","Asian and Caucasian","d","e","g",2.22,26.7,2,0,"Duck","1","Right","BalloonsDuck ",0.7,"dissimilar",NA,NA
"172","51",3052,1,"3","Male","Not Hispanic","Caucasian","f","g","e",2.47,29.69,3,0,"Bear","1","Right","AppleBear",0.9,"dissimilar",NA,NA
"173","52",3964,1,"3","Female","Not Hispanic","Caucasian","e","e","c",2.2,26.37,4,0,"Ball","1","Right","SpoonBall",0.8,"dissimilar",NA,NA
"174","53",3913,1,"3","Male","Not Hispanic","Caucasian","e","c","e",2.3,27.55,5,0,"Cake","1","Left","CakeDoll",0.75,"dissimilar",NA,NA
"175","54",5296,1,"3","Female","Hispanic","Caucasian","f","c","d",2.16,25.94,6,0,"Balloons","1","Left","BalloonsDuck ",0.75,"dissimilar",0,1
"176","56",4803,1,"3","Female","Not Hispanic","Caucasian","f","g","e",2.45,29.39,8,0,"Spoon","1","Left","SpoonBall",0.9,"dissimilar",NA,NA
"177","58",25937,NA,"3","Female","Not Hispanic","African American/Caucasian","f","g","c",2.33,27.95,2,0,"Duck","1",NA,NA,0.578947368421053,"dissimilar",NA,NA
"178","59",4190,1,"3","Male","Not Hispanic","Caucasian","d","d","e",2.27,27.19,3,0,"Bear","1","Right","AppleBear",0.85,"dissimilar",NA,NA
"179","60",1983,1,"3","Female","Not Hispanic","Caucasian","c","e","c",2.31,27.68,4,0,"Ball","1","Right","SpoonBall",0.55,"dissimilar",NA,NA
"180","62",4262,1,"3","Female","1/8 Hispanic","Caucasian","d","e","b",2.34,28.04,6,0,"Balloons","1","Left","BalloonsDuck ",0.85,"dissimilar",NA,NA
"181","63",3497,1,"3","Male","Hispanic","","e","c","c",2.36,28.34,7,0,"Apple","1","Left","AppleBear",0.85,"dissimilar",NA,NA
"182","64",3955,1,"3","","Not Hispanic","Caucasian","c","c","d",2.41,28.96,8,0,"Spoon","1","Left","SpoonBall",0.75,"dissimilar",NA,NA
"183","65",4989,1,"3","Male","","Caucasian","f","e","e",2.48,29.72,1,0,"Doll","1","Right","CakeDoll",0.9,"dissimilar",NA,NA
"184","66",2745,1,"3","Female","Not Hispanic","Asian/Caucasian","f","g","f",2.41,28.96,2,0,"Duck","1","Right","BalloonsDuck ",0.8,"dissimilar",1,1
"185","67",2106,1,"3","Female","Not Hispanic","Caucasian","e","e","e",2.33,28.01,3,0,"Bear","1","Right","AppleBear",0.9,"dissimilar",NA,NA
"186","68",3210,1,"3","Male","Not Hispanic","Caucasian","e","c","d",2.32,27.88,4,0,"Ball","1","Right","SpoonBall",0.7,"dissimilar",NA,NA
"187","69",8779,1,"3","Male","Not Hispanic","Caucasian","f","g","g",2.36,28.37,5,0,"Cake","1","Left","CakeDoll",0.85,"dissimilar",NA,NA
"188","71",3064,1,"3","Female","Not Hispanic","Caucasian","e","d","b",2.56,30.71,7,0,"Apple","1","Left","AppleBear",0.75,"dissimilar",NA,NA
"189","73",3016,1,"3","Male","Not Hispanic","Caucasian","e","e","e",2.27,27.19,1,0,"Doll","0","Right","CakeDoll",0.7,"dissimilar",NA,NA
"190","74",9276,1,"3","Male","Not Hispanic","Caucasian","f","d","h",2.52,30.21,2,0,"Duck","1","Right","BalloonsDuck ",0.85,"dissimilar",NA,NA
"191","75",2280,1,"3","Female","Not Hispanic","Caucasian","f","e","b",2.56,30.71,3,0,"Bear","1","Right","AppleBear",0.8,"dissimilar",NA,NA
"192","76",2350,1,"3","Female","Not Hispanic","Caucasian","d","d","d",2.22,26.7,4,0,"Ball","1","Right","SpoonBall",0.9,"dissimilar",NA,NA
"193","77",4813,1,"3","Female","Not Hispanic","African American/Caucasian","e","d","d",2.49,29.85,5,0,"Cake","1","Left","CakeDoll",0.631578947368421,"dissimilar",NA,NA
"194","78",2946,1,"3","Female","Not Hispanic","Caucasian","f","c","d",2.43,29.16,6,0,"Balloons","1","Left","BalloonsDuck ",0.95,"dissimilar",NA,NA
"195","79",2147,1,"3","Male","Hispanic","Caucasian","f","e","e",2.49,29.85,7,0,"Apple","1","Left","AppleBear",0.7,"dissimilar",NA,NA
"196","80",1630,1,"3","Male","Not Hispanic","Caucasian","f","e","e",2.14,25.68,8,0,"Spoon","1","Left","SpoonBall",0.578947368421053,"dissimilar",NA,NA
"197","81",3125,1,"3","Male ","Hispanic","Caucasian","d","c","d",2.36,28.27,1,0,"Doll","1","Right","CakeDoll",0.95,"dissimilar",NA,NA
"198","83",2397,1,"3","Male ","Not hipanic ","Caucasian ","d","g","g",2.41,28.9,3,0,"Bear","1","Right","AppleBear",0.75,"dissimilar",1,1
"199","86",2097,0,"3","Female","Not Hispanic","Caucasian","f","g","d",2.21,26.53,6,0,"Balloons","1","Right","BalloonsDuck ",0.7,"dissimilar",NA,NA
"200","87",3826,1,"3","Male","Hispanic ","Caucasian","e","g","e",2.34,28.11,7,0,"Apple","1","Left","AppleBear",0.7,"dissimilar",NA,NA
"201","88",5821,1,"3","Male ","Not Hispanic ","Native Hawaiian & Caucasian","c","c","g",2.25,26.99,8,0,"Spoon","1","Left","SpoonBall",0.882352941176471,"dissimilar",NA,NA
"202","90",2494,1,"3","Male","Hispanic","Caucasian","d","g","e",2.52,30.18,2,0,"Duck","1","Right","BalloonsDuck ",0.9,"dissimilar",1,1
"203","91",4137,1,"3","Male","Not Hispanic","African American","f","g","c",2.46,29.49,3,0,"Bear","1","Right","AppleBear",0.65,"dissimilar",NA,NA
"204","93",4052,1,"3","Female","Not Hispanic","Asian","","","",2.68,32.15,5,0,"Cake","1","Left","CakeDoll",0.9,"dissimilar",NA,NA
"205","95",2022,1,"3","Female","Not Hispanic ","Caucasian","e","e","g",2.85,34.16,6,0,"Balloons","1","Left","BalloonsDuck ",0.95,"dissimilar",0,1
"206","97",4674,0,"3"," Female","Not Hispanic ","Caucasian","d","c","c",2.34,28.11,8,0,"Spoon","1","Right","SpoonBall",0.85,"dissimilar",NA,NA
"207","98",2479,1,"3","Male","Hispanic","American Indian or Alaskan / Caucasian","e","g","d",2.64,31.73,1,0,"Doll","1","Right","CakeDoll",0.736842105263158,"dissimilar",NA,NA
"208","101",3568,0,"4","Male","Caucasian",NA,"","e","e",2.52,30.21,4,0,"Cookie","1","Right","CookieSock",0.85,"dissimilar",NA,NA
"209","102",10617,1,"4","Male ","Caucasian/ Asian-American",NA,"e","g","e",2.38,28.57,5,0,"Hat","1","Right","EggHat",0.85,"dissimilar",NA,NA
"210","103",2799,1,"4","Female","Caucasian ",NA,"e","c","b",2.68,32.19,6,0,"Cat","1","Right","FlowersCat",0.9,"dissimilar",NA,NA
"211","106",3627,1,"4","Female","Caucasian","","f","e","e",2.55,30.58,2,0,"Flowers","1","Left","FlowersCat",0.684210526315789,"dissimilar",NA,NA
"212","107",1608,0,"4","Male","African American, Caucasian, American Indian, Asian-American",NA,"d","g","c",2.6,31.17,3,0,"Elephant","1","Right","ElephantBroccoli",0.6,"dissimilar",NA,NA
"213","108",1986,0,"4","Male","Caucasian",NA,"f","e","g",2.43,29.16,4,0,"Cookie","1","Right","CookieSock",0.65,"dissimilar",NA,NA
"214","109",2536,1,"4","Male","Caucasion, Asian-American","","f","e","g",2.39,28.67,1,0,"Egg","1","Left","EggHat",0.8,"dissimilar",NA,NA
"215","110",3939,1,"4","Male","Caucasian","","f","e","e",2.44,29.29,6,0,"Cat","1","Right","FlowersCat",0.9,"dissimilar",NA,NA
"216","111",2955,1,"4","Female","Caucasian","","f","e","e",2.64,31.69,7,0,"Broccoli","1","Right","ElephantBroccoli",0.85,"dissimilar",NA,NA
"217","112",2058,1,"4","Male","Caucasian","","f","e","e",2.65,31.86,8,0,"Sock","1","Right","CookieSock",0.75,"dissimilar",1,1
"218","113",5513,1,"4","Male","Caucasiasian-American","","f","e","b",2.55,30.54,1,0,"Egg","1","Left","EggHat",0.75,"dissimilar",NA,NA
"219","114",6192,1,"4","Male","Non-Hispanic","Caucasian","d","d","d",2.33,27.95,2,0,"Flowers","1","Left","FlowersCat",0.95,"dissimilar",NA,NA
"220","116",1627,1,"4","Female","Asian-Russian","","d","e","d",2.49,29.85,4,0,"Cookie","1","Left","CookieSock",0.55,"dissimilar",NA,NA
"221","117",1928,1,"4","Male","Non-Hispanic","Caucasian","e","e","g",2.59,31.04,5,0,"Hat","1","Right","EggHat",0.95,"dissimilar",NA,NA
"222","118",2686,1,"4","Male","Non-Hispanic","Caucasian","f","e","g",2.28,27.39,6,0,"Cat","1","Right","FlowersCat",0.75,"dissimilar",NA,NA
"223","121",4450,0,"4","Female","African American, Caucasian, American Indian, Asian-American","Caucasian","a","c","",2.7,32.45,1,0,"Egg","1","Right","EggHat",0.55,"dissimilar",NA,NA
"224","123",2938,1,"4","Male","Caucasian","","f","g","g",2.64,31.73,3,0,"Elephant","1","Left","ElephantBroccoli",0.85,"dissimilar",NA,NA
"225","34",5103,1,"4","Female","Hispanic","Caucasian","d","e","e",2.35,28.21,2,0,"Flowers","1","Left","FlowersCat",0.6,"dissimilar",NA,NA
"226","35",4329,1,"4","Male","Non-Hispanic","Asian & Caucasian","f","e","e",2.27,27.25,3,0,"Elephant","1","Left","ElephantBroccoli",0.6,"dissimilar",NA,NA
"227","36",4842,1,"4","Female","Non-Hispanic","Caucasian","f","d","g",2.24,26.83,4,0,"Cookie","1","Left","CookieSock",0.95,"dissimilar",NA,NA
"228","37",1927,0,"4","Female","Non-Hispanic","Caucasian","f","e","e",2.2,26.4,5,0,"Hat","1","Left","EggHat",0.55,"dissimilar",NA,NA
"229","38",3236,1,"4","Female","Non-Hispanic","Asian & Caucasian","f","d","e",2.21,26.5,6,0,"Cat","1","Right","FlowersCat",0.8,"dissimilar",NA,NA
"230","39",16057,1,"4","Male","Non-Hispanic","Caucasian","c","b","b",2.19,26.24,7,0,"Broccoli","1","Right","ElephantBroccoli",0.9,"dissimilar",NA,NA
"231","40",4927,1,"4","Male","Hispanic","Caucasian","e","g","g",2.33,27.95,8,0,"Sock","1","Right","CookieSock",0.647058823529412,"dissimilar",NA,NA
"232","41",4717,1,"4","Female","Hispanic","","f","d","d",2.23,26.79,1,0,"Egg","1","Left","EggHat",0.55,"dissimilar",NA,NA
"233","43",9933,0,"4","Female","Not Hispanic","Caucasian","f","g","e",2.33,27.95,3,0,"Elephant","1","Right","ElephantBroccoli",0.85,"dissimilar",NA,NA
"234","44",6755,1,"4","Male","Not Hispanic","Caucasian","b","d","b",2.27,27.19,4,0,"Cookie","1","Left","CookieSock",0.9,"dissimilar",NA,NA
"235","45",3988,1,"4","Female","Not Hispanic","Caucasian","","d","g",2.39,28.73,5,0,"Hat","1","Right","EggHat",0.944444444444444,"dissimilar",NA,NA
"236","46",3884,1,"4","Male","Not Hispanic","Caucasian","e","e","g",2.33,27.91,6,0,"Cat","1","Right","FlowersCat",0.85,"dissimilar",NA,NA
"237","47",2226,0,"4","Male","Not Hispanic","Asian, Caucasian","f","g","g",2.46,29.52,7,0,"Broccoli","1","Left","ElephantBroccoli",0.65,"dissimilar",NA,NA
"238","48",4627,1,"4","Female","Not Hispanic","Native Hawaiian & Caucasian","c","d","f",2.26,27.16,8,0,"Sock","1","Right","CookieSock",0.9,"dissimilar",NA,NA
"239","49",3094,1,"4","Female","Not Hispanic","Native Hawaiian & Caucasian","c","d","f",2.26,27.16,1,0,"Egg","1","Left","EggHat",0.85,"dissimilar",NA,NA
"240","50",3607,1,"4","Female","Not Hispanic","Asian and Caucasian","d","e","g",2.22,26.7,2,0,"Flowers","1","Left","FlowersCat",0.7,"dissimilar",NA,NA
"241","51",2917,1,"4","Male","Not Hispanic","Caucasian","f","g","e",2.47,29.69,3,0,"Elephant","1","Left","ElephantBroccoli",0.9,"dissimilar",NA,NA
"242","52",5247,1,"4","Female","Not Hispanic","Caucasian","e","e","c",2.2,26.37,4,0,"Cookie","1","Left","CookieSock",0.8,"dissimilar",NA,NA
"243","53",4255,1,"4","Male","Not Hispanic","Caucasian","e","c","e",2.3,27.55,5,0,"Hat","1","Right","EggHat",0.75,"dissimilar",NA,NA
"244","54",2636,1,"4","Female","Hispanic","Caucasian","f","c","d",2.16,25.94,6,0,"Cat","1","Right","FlowersCat",0.75,"dissimilar",3,1
"245","56",4328,1,"4","Female","Not Hispanic","Caucasian","f","g","e",2.45,29.39,8,0,"Sock","1","Right","CookieSock",0.9,"dissimilar",NA,NA
"246","58",15120,0,"4","Female","Not Hispanic","African American/Caucasian","f","g","c",2.33,27.95,2,0,"Flowers","1","Right","FlowersCat",0.578947368421053,"dissimilar",NA,NA
"247","59",1722,0,"4","Male","Not Hispanic","Caucasian","d","d","e",2.27,27.19,3,0,"Elephant","1","Right","ElephantBroccoli",0.85,"dissimilar",NA,NA
"248","60",1870,1,"4","Female","Not Hispanic","Caucasian","c","e","c",2.31,27.68,4,0,"Cookie","1","Left","CookieSock",0.55,"dissimilar",NA,NA
"249","62",3472,1,"4","Female","1/8 Hispanic","Caucasian","d","e","b",2.34,28.04,6,0,"Cat","1","Right","FlowersCat",0.85,"dissimilar",NA,NA
"250","63",3627,1,"4","Male","Hispanic","","e","c","c",2.36,28.34,7,0,"Broccoli","0","Right","ElephantBroccoli",0.85,"dissimilar",NA,NA
"251","64",5386,1,"4","","Not Hispanic","Caucasian","c","c","d",2.41,28.96,8,0,"Sock","1","Right","CookieSock",0.75,"dissimilar",NA,NA
"252","65",2460,0,"4","Male","","Caucasian","f","e","e",2.48,29.72,1,0,"Egg","1","Right","EggHat",0.9,"dissimilar",NA,NA
"253","66",2007,1,"4","Female","Not Hispanic","Asian/Caucasian","f","g","f",2.41,28.96,2,0,"Flowers","1","Left","FlowersCat",0.8,"dissimilar",3,1
"254","67",2422,1,"4","Female","Not Hispanic","Caucasian","e","e","e",2.33,28.01,3,0,"Elephant","1","Left","ElephantBroccoli",0.9,"dissimilar",NA,NA
"255","68",4458,1,"4","Male","Not Hispanic","Caucasian","e","c","d",2.32,27.88,4,0,"Cookie","1","Left","CookieSock",0.7,"dissimilar",NA,NA
"256","69",5328,0,"4","Male","Not Hispanic","Caucasian","f","g","g",2.36,28.37,5,0,"Hat","1","Left","EggHat",0.85,"dissimilar",NA,NA
"257","71",5197,0,"4","Female","Not Hispanic","Caucasian","e","d","b",2.56,30.71,7,0,"Broccoli","1","Left","ElephantBroccoli",0.75,"dissimilar",NA,NA
"258","73",1586,0,"4","Male","Not Hispanic","Caucasian","e","e","e",2.27,27.19,1,0,"Egg","1","Right","EggHat",0.7,"dissimilar",NA,NA
"259","74",4584,1,"4","Male","Not Hispanic","Caucasian","f","d","h",2.52,30.21,2,0,"Flowers","1","Left","FlowersCat",0.85,"dissimilar",NA,NA
"260","75",2124,0,"4","Female","Not Hispanic","Caucasian","f","e","b",2.56,30.71,3,0,"Elephant","1","Right","ElephantBroccoli",0.8,"dissimilar",NA,NA
"261","76",2798,1,"4","Female","Not Hispanic","Caucasian","d","d","d",2.22,26.7,4,0,"Cookie","1","Left","CookieSock",0.9,"dissimilar",NA,NA
"262","77",3722,0,"4","Female","Not Hispanic","African American/Caucasian","e","d","d",2.49,29.85,5,0,"Hat","1","Left","EggHat",0.631578947368421,"dissimilar",NA,NA
"263","78",4761,1,"4","Female","Not Hispanic","Caucasian","f","c","d",2.43,29.16,6,0,"Cat","1","Right","FlowersCat",0.95,"dissimilar",NA,NA
"264","79",5500,0,"4","Male","Hispanic","Caucasian","f","e","e",2.49,29.85,7,0,"Broccoli","1","Left","ElephantBroccoli",0.7,"dissimilar",NA,NA
"265","80",3392,1,"4","Male","Not Hispanic","Caucasian","f","e","e",2.14,25.68,8,0,"Sock","1","Right","CookieSock",0.578947368421053,"dissimilar",NA,NA
"266","81",3977,1,"4","Male ","Hispanic","Caucasian","d","c","d",2.36,28.27,1,0,"Egg","1","Left","EggHat",0.95,"dissimilar",NA,NA
"267","83",2554,1,"4","Male ","Not hipanic ","Caucasian ","d","g","g",2.41,28.9,3,0,"Elephant","1","Left","ElephantBroccoli",0.75,"dissimilar",0,1
"268","86",2679,1,"4","Female","Not Hispanic","Caucasian","f","g","d",2.21,26.53,6,0,"Cat","1","Right","FlowersCat",0.7,"dissimilar",NA,NA
"269","87",5121,1,"4","Male","Hispanic ","Caucasian","e","g","e",2.34,28.11,7,0,"Broccoli","1","Right","ElephantBroccoli",0.7,"dissimilar",NA,NA
"270","88",1570,1,"4","Male ","Not Hispanic ","Native Hawaiian & Caucasian","c","c","g",2.25,26.99,8,0,"Sock","1","Right","CookieSock",0.882352941176471,"dissimilar",NA,NA
"271","90",3182,1,"4","Male","Hispanic","Caucasian","d","g","e",2.52,30.18,2,0,"Flowers","1","Left","FlowersCat",0.9,"dissimilar",2,1
"272","91",2889,1,"4","Male","Not Hispanic","African American","f","g","c",2.46,29.49,3,0,"Elephant","1","Left","ElephantBroccoli",0.65,"dissimilar",NA,NA
"273","93",2852,1,"4","Female","Not Hispanic","Asian","","","",2.68,32.15,5,0,"Hat","1","Right","EggHat",0.9,"dissimilar",NA,NA
"274","95",2068,1,"4","Female","Not Hispanic ","Caucasian","e","e","g",2.85,34.16,6,0,"Cat","1","Right","FlowersCat",0.95,"dissimilar",1,1
"275","97",3099,0,"4"," Female","Not Hispanic ","Caucasian","d","c","c",2.34,28.11,8,0,"Sock","1","Left","CookieSock",0.85,"dissimilar",NA,NA
"276","98",3874,1,"4","Male","Hispanic","American Indian or Alaskan / Caucasian","e","g","d",2.64,31.73,1,0,"Egg","1","Left","EggHat",0.736842105263158,"dissimilar",NA,NA
"277","101",8582,1,"5","Male","Caucasian",NA,"","e","e",2.52,30.21,4,0,"Bread","1","Right","OrangeBread",0.85,"dissimilar",NA,NA
"278","102",7634,1,"5","Male ","Caucasian/ Asian-American",NA,"e","g","e",2.38,28.57,5,0,"Bottle","1","Left","BottleLeaf",0.85,"dissimilar",NA,NA
"279","103",2801,1,"5","Female","Caucasian ",NA,"e","c","b",2.68,32.19,6,0,"Pig","1","Left","PigButterfly",0.9,"dissimilar",NA,NA
"280","106",1577,1,"5","Female","Caucasian","","f","e","e",2.55,30.58,2,0,"Butterfly","1","Right","PigButterfly",0.684210526315789,"dissimilar",NA,NA
"281","107",1718,1,"5","Male","African American, Caucasian, American Indian, Asian-American",NA,"d","g","c",2.6,31.17,3,0,"Dog","1","Right","ClockDog",0.6,"dissimilar",NA,NA
"282","108",1153,0,"5","Male","Caucasian",NA,"f","e","g",2.43,29.16,4,0,"Bread","1","Left","OrangeBread",0.65,"dissimilar",NA,NA
"283","109",3611,1,"5","Male","Caucasion, Asian-American","","f","e","g",2.39,28.67,1,0,"Leaf","1","Right","BottleLeaf",0.8,"dissimilar",NA,NA
"284","110",3674,0,"5","Male","Caucasian","","f","e","e",2.44,29.29,6,0,"Pig","1","Right","PigButterfly",0.9,"dissimilar",NA,NA
"285","111",2176,1,"5","Female","Caucasian","","f","e","e",2.64,31.69,7,0,"Clock","1","Left","ClockDog",0.85,"dissimilar",NA,NA
"286","112",2119,1,"5","Male","Caucasian","","f","e","e",2.65,31.86,8,0,"Orange","1","Left","OrangeBread",0.75,"dissimilar",1,1
"287","113",3391,1,"5","Male","Caucasiasian-American","","f","e","b",2.55,30.54,1,0,"Leaf","1","Right","BottleLeaf",0.75,"dissimilar",NA,NA
"288","114",6718,1,"5","Male","Non-Hispanic","Caucasian","d","d","d",2.33,27.95,2,0,"Butterfly","1","Right","PigButterfly",0.95,"dissimilar",NA,NA
"289","116",1226,1,"5","Female","Asian-Russian","","d","e","d",2.49,29.85,4,0,"Bread","1","Right","OrangeBread",0.55,"dissimilar",NA,NA
"290","117",1512,1,"5","Male","Non-Hispanic","Caucasian","e","e","g",2.59,31.04,5,0,"Bottle","1","Left","BottleLeaf",0.95,"dissimilar",NA,NA
"291","118",1974,1,"5","Male","Non-Hispanic","Caucasian","f","e","g",2.28,27.39,6,0,"Pig","1","Left","PigButterfly",0.75,"dissimilar",NA,NA
"292","121",2084,1,"5","Female","African American, Caucasian, American Indian, Asian-American","Caucasian","a","c","",2.7,32.45,1,0,"Leaf","1","Right","BottleLeaf",0.55,"dissimilar",NA,NA
"293","123",3059,1,"5","Male","Caucasian","","f","g","g",2.64,31.73,3,0,"Dog","1","Right","ClockDog",0.85,"dissimilar",NA,NA
"294","34",2558,1,"5","Female","Hispanic","Caucasian","d","e","e",2.35,28.21,2,0,"Butterfly","1","Right","PigButterfly",0.6,"dissimilar",NA,NA
"295","35",2652,1,"5","Male","Non-Hispanic","Asian & Caucasian","f","e","e",2.27,27.25,3,0,"Dog","1","Right","ClockDog",0.6,"dissimilar",NA,NA
"296","36",2743,1,"5","Female","Non-Hispanic","Caucasian","f","d","g",2.24,26.83,4,0,"Bread","1","Right","OrangeBread",0.95,"dissimilar",NA,NA
"297","37",2355,1,"5","Female","Non-Hispanic","Caucasian","f","e","e",2.2,26.4,5,0,"Bottle","1","Left","BottleLeaf",0.55,"dissimilar",NA,NA
"298","38",2653,1,"5","Female","Non-Hispanic","Asian & Caucasian","f","d","e",2.21,26.5,6,0,"Pig","1","Left","PigButterfly",0.8,"dissimilar",NA,NA
"299","39",2712,1,"5","Male","Non-Hispanic","Caucasian","c","b","b",2.19,26.24,7,0,"Clock","1","Left","ClockDog",0.9,"dissimilar",NA,NA
"300","40",4231,0,"5","Male","Hispanic","Caucasian","e","g","g",2.33,27.95,8,0,"Orange","1","Right","OrangeBread",0.647058823529412,"dissimilar",NA,NA
"301","41",3321,1,"5","Female","Hispanic","","f","d","d",2.23,26.79,1,0,"Leaf","1","Right","BottleLeaf",0.55,"dissimilar",NA,NA
"302","43",4515,1,"5","Female","Not Hispanic","Caucasian","f","g","e",2.33,27.95,3,0,"Dog","1","Right","ClockDog",0.85,"dissimilar",NA,NA
"303","44",4232,1,"5","Male","Not Hispanic","Caucasian","b","d","b",2.27,27.19,4,0,"Bread","0","Right","OrangeBread",0.9,"dissimilar",NA,NA
"304","45",3814,1,"5","Female","Not Hispanic","Caucasian","","d","g",2.39,28.73,5,0,"Bottle","1","Left","BottleLeaf",0.944444444444444,"dissimilar",NA,NA
"305","46",2326,1,"5","Male","Not Hispanic","Caucasian","e","e","g",2.33,27.91,6,0,"Pig","1","Left","PigButterfly",0.85,"dissimilar",NA,NA
"306","47",2192,1,"5","Male","Not Hispanic","Asian, Caucasian","f","g","g",2.46,29.52,7,0,"Clock","0","Left","ClockDog",0.65,"dissimilar",NA,NA
"307","48",6574,1,"5","Female","Not Hispanic","Native Hawaiian & Caucasian","c","d","f",2.26,27.16,8,0,"Orange","1","Left","OrangeBread",0.9,"dissimilar",NA,NA
"308","49",2833,1,"5","Female","Not Hispanic","Native Hawaiian & Caucasian","c","d","f",2.26,27.16,1,0,"Leaf","1","Right","BottleLeaf",0.85,"dissimilar",NA,NA
"309","50",2488,1,"5","Female","Not Hispanic","Asian and Caucasian","d","e","g",2.22,26.7,2,0,"Butterfly","1","Right","PigButterfly",0.7,"dissimilar",NA,NA
"310","51",2752,1,"5","Male","Not Hispanic","Caucasian","f","g","e",2.47,29.69,3,0,"Dog","1","Right","ClockDog",0.9,"dissimilar",NA,NA
"311","52",4716,1,"5","Female","Not Hispanic","Caucasian","e","e","c",2.2,26.37,4,0,"Bread","1","Right","OrangeBread",0.8,"dissimilar",NA,NA
"312","53",2266,1,"5","Male","Not Hispanic","Caucasian","e","c","e",2.3,27.55,5,0,"Bottle","1","Left","BottleLeaf",0.75,"dissimilar",NA,NA
"313","54",3038,1,"5","Female","Hispanic","Caucasian","f","c","d",2.16,25.94,6,0,"Pig","1","Left","PigButterfly",0.75,"dissimilar",1,1
"314","56",3155,1,"5","Female","Not Hispanic","Caucasian","f","g","e",2.45,29.39,8,0,"Orange","1","Left","OrangeBread",0.9,"dissimilar",NA,NA
"315","58",2692,1,"5","Female","Not Hispanic","African American/Caucasian","f","g","c",2.33,27.95,2,0,"Butterfly","1","Right","PigButterfly",0.578947368421053,"dissimilar",NA,NA
"316","59",3062,1,"5","Male","Not Hispanic","Caucasian","d","d","e",2.27,27.19,3,0,"Dog","1","Right","ClockDog",0.85,"dissimilar",NA,NA
"317","60",1429,1,"5","Female","Not Hispanic","Caucasian","c","e","c",2.31,27.68,4,0,"Bread","1","Right","OrangeBread",0.55,"dissimilar",NA,NA
"318","62",4541,1,"5","Female","1/8 Hispanic","Caucasian","d","e","b",2.34,28.04,6,0,"Pig","1","Left","PigButterfly",0.85,"dissimilar",NA,NA
"319","63",2011,1,"5","Male","Hispanic","","e","c","c",2.36,28.34,7,0,"Clock","1","Left","ClockDog",0.85,"dissimilar",NA,NA
"320","64",5570,1,"5","","Not Hispanic","Caucasian","c","c","d",2.41,28.96,8,0,"Orange","1","Left","OrangeBread",0.75,"dissimilar",NA,NA
"321","65",9776,1,"5","Male","","Caucasian","f","e","e",2.48,29.72,1,0,"Leaf",NA,"Right","BottleLeaf",0.9,"dissimilar",NA,NA
"322","66",1355,1,"5","Female","Not Hispanic","Asian/Caucasian","f","g","f",2.41,28.96,2,0,"Butterfly","1","Right","PigButterfly",0.8,"dissimilar",1,1
"323","67",1880,1,"5","Female","Not Hispanic","Caucasian","e","e","e",2.33,28.01,3,0,"Dog","1","Right","ClockDog",0.9,"dissimilar",NA,NA
"324","68",4765,1,"5","Male","Not Hispanic","Caucasian","e","c","d",2.32,27.88,4,0,"Bread","1","Right","OrangeBread",0.7,"dissimilar",NA,NA
"325","69",2894,1,"5","Male","Not Hispanic","Caucasian","f","g","g",2.36,28.37,5,0,"Bottle","1","Left","BottleLeaf",0.85,"dissimilar",NA,NA
"326","71",4111,1,"5","Female","Not Hispanic","Caucasian","e","d","b",2.56,30.71,7,0,"Clock","0","Left","ClockDog",0.75,"dissimilar",NA,NA
"327","73",1718,1,"5","Male","Not Hispanic","Caucasian","e","e","e",2.27,27.19,1,0,"Leaf","1","Right","BottleLeaf",0.7,"dissimilar",NA,NA
"328","74",3586,1,"5","Male","Not Hispanic","Caucasian","f","d","h",2.52,30.21,2,0,"Butterfly","1","Right","PigButterfly",0.85,"dissimilar",NA,NA
"329","75",1747,1,"5","Female","Not Hispanic","Caucasian","f","e","b",2.56,30.71,3,0,"Dog","1","Right","ClockDog",0.8,"dissimilar",NA,NA
"330","76",3001,1,"5","Female","Not Hispanic","Caucasian","d","d","d",2.22,26.7,4,0,"Bread","1","Right","OrangeBread",0.9,"dissimilar",NA,NA
"331","77",6578,1,"5","Female","Not Hispanic","African American/Caucasian","e","d","d",2.49,29.85,5,0,"Bottle","1","Left","BottleLeaf",0.631578947368421,"dissimilar",NA,NA
"332","78",3073,1,"5","Female","Not Hispanic","Caucasian","f","c","d",2.43,29.16,6,0,"Pig","1","Left","PigButterfly",0.95,"dissimilar",NA,NA
"333","79",6569,1,"5","Male","Hispanic","Caucasian","f","e","e",2.49,29.85,7,0,"Clock","1","Left","ClockDog",0.7,"dissimilar",NA,NA
"334","80",1288,1,"5","Male","Not Hispanic","Caucasian","f","e","e",2.14,25.68,8,0,"Orange","1","Left","OrangeBread",0.578947368421053,"dissimilar",NA,NA
"335","81",5176,1,"5","Male ","Hispanic","Caucasian","d","c","d",2.36,28.27,1,0,"Leaf","1","Right","BottleLeaf",0.95,"dissimilar",NA,NA
"336","83",2203,1,"5","Male ","Not hipanic ","Caucasian ","d","g","g",2.41,28.9,3,0,"Dog","1","Right","ClockDog",0.75,"dissimilar",0,1
"337","86",2268,1,"5","Female","Not Hispanic","Caucasian","f","g","d",2.21,26.53,6,0,"Pig","1","Left","PigButterfly",0.7,"dissimilar",NA,NA
"338","87",2426,0,"5","Male","Hispanic ","Caucasian","e","g","e",2.34,28.11,7,0,"Clock","1","Right","ClockDog",0.7,"dissimilar",NA,NA
"339","88",1720,1,"5","Male ","Not Hispanic ","Native Hawaiian & Caucasian","c","c","g",2.25,26.99,8,0,"Orange","1","Left","OrangeBread",0.882352941176471,"dissimilar",NA,NA
"340","90",3141,1,"5","Male","Hispanic","Caucasian","d","g","e",2.52,30.18,2,0,"Butterfly","1","Right","PigButterfly",0.9,"dissimilar",0,1
"341","91",2488,1,"5","Male","Not Hispanic","African American","f","g","c",2.46,29.49,3,0,"Dog","1","Right","ClockDog",0.65,"dissimilar",NA,NA
"342","93",1941,1,"5","Female","Not Hispanic","Asian","","","",2.68,32.15,5,0,"Bottle","1","Left","BottleLeaf",0.9,"dissimilar",NA,NA
"343","95",4387,1,"5","Female","Not Hispanic ","Caucasian","e","e","g",2.85,34.16,6,0,"Pig","1","Left","PigButterfly",0.95,"dissimilar",1,1
"344","97",3404,1,"5"," Female","Not Hispanic ","Caucasian","d","c","c",2.34,28.11,8,0,"Orange","1","Left","OrangeBread",0.85,"dissimilar",NA,NA
"345","98",3353,1,"5","Male","Hispanic","American Indian or Alaskan / Caucasian","e","g","d",2.64,31.73,1,0,"Leaf","1","Right","BottleLeaf",0.736842105263158,"dissimilar",NA,NA
"346","101",8138,0,"6","Male","Caucasian",NA,"","e","e",2.52,30.21,4,0,"Flowers","1","Right","FlowersButterfly",0.85,"similar",NA,NA
"347","102",4977,1,"6","Male ","Caucasian/ Asian-American",NA,"e","g","e",2.38,28.57,5,0,"Dog","1","Right","BunnyDog",0.85,"similar",NA,NA
"348","103",2082,1,"6","Female","Caucasian ",NA,"e","c","b",2.68,32.19,6,0,"Bread","1","Right","TVBread",0.9,"similar",NA,NA
"349","106",1649,1,"6","Female","Caucasian","","f","e","e",2.55,30.58,2,0,"TV","1","Left","TVBread",0.684210526315789,"similar",NA,NA
"350","107",2063,1,"6","Male","African American, Caucasian, American Indian, Asian-American",NA,"d","g","c",2.6,31.17,3,0,"Bottle","1","Left","Bottlecrayon",0.6,"similar",NA,NA
"351","108",2092,1,"6","Male","Caucasian",NA,"f","e","g",2.43,29.16,4,0,"Flowers","1","Left","FlowersButterfly",0.65,"similar",NA,NA
"352","109",2137,1,"6","Male","Caucasion, Asian-American","","f","e","g",2.39,28.67,1,0,"Bunny","1","Left","BunnyDog",0.8,"similar",NA,NA
"353","110",3904,1,"6","Male","Caucasian","","f","e","e",2.44,29.29,6,0,"Bread","1","Right","TVBread",0.9,"similar",NA,NA
"354","111",2506,1,"6","Female","Caucasian","","f","e","e",2.64,31.69,7,0,"Crayon","1","Right","Bottlecrayon",0.85,"similar",NA,NA
"355","112",2783,1,"6","Male","Caucasian","","f","e","e",2.65,31.86,8,0,"Butterfly","1","Right","FlowersButterfly",0.75,"similar",1,1
"356","113",3584,1,"6","Male","Caucasiasian-American","","f","e","b",2.55,30.54,1,0,"Bunny","1","Left","BunnyDog",0.75,"similar",NA,NA
"357","114",4259,1,"6","Male","Non-Hispanic","Caucasian","d","d","d",2.33,27.95,2,0,"TV","1","Left","TVBread",0.95,"similar",NA,NA
"358","116",1363,0,"6","Female","Asian-Russian","","d","e","d",2.49,29.85,4,0,"Flowers","1","Right","FlowersButterfly",0.55,"similar",NA,NA
"359","117",1967,1,"6","Male","Non-Hispanic","Caucasian","e","e","g",2.59,31.04,5,0,"Dog","1","Right","BunnyDog",0.95,"similar",NA,NA
"360","118",2439,1,"6","Male","Non-Hispanic","Caucasian","f","e","g",2.28,27.39,6,0,"Bread","1","Right","TVBread",0.75,"similar",NA,NA
"361","121",1794,1,"6","Female","African American, Caucasian, American Indian, Asian-American","Caucasian","a","c","",2.7,32.45,1,0,"Bunny","1","Left","BunnyDog",0.55,"similar",NA,NA
"362","123",1860,1,"6","Male","Caucasian","","f","g","g",2.64,31.73,3,0,"Bottle","1","Left","Bottlecrayon",0.85,"similar",NA,NA
"363","34",3241,1,"6","Female","Hispanic","Caucasian","d","e","e",2.35,28.21,2,0,"TV","1","Left","TVBread",0.6,"similar",NA,NA
"364","35",2472,1,"6","Male","Non-Hispanic","Asian & Caucasian","f","e","e",2.27,27.25,3,0,"Bottle","0","Left","Bottlecrayon",0.6,"similar",NA,NA
"365","36",5247,1,"6","Female","Non-Hispanic","Caucasian","f","d","g",2.24,26.83,4,0,"Flowers","1","Left","FlowersButterfly",0.95,"similar",NA,NA
"366","37",2705,1,"6","Female","Non-Hispanic","Caucasian","f","e","e",2.2,26.4,5,0,"Dog","1","Right","BunnyDog",0.55,"similar",NA,NA
"367","38",21461,0,"6","Female","Non-Hispanic","Asian & Caucasian","f","d","e",2.21,26.5,6,0,"Bread","1","Left","TVBread",0.8,"similar",NA,NA
"368","39",4071,1,"6","Male","Non-Hispanic","Caucasian","c","b","b",2.19,26.24,7,0,"Crayon","1","Right","Bottlecrayon",0.9,"similar",NA,NA
"369","40",4722,1,"6","Male","Hispanic","Caucasian","e","g","g",2.33,27.95,8,0,"Butterfly","1","Right","FlowersButterfly",0.647058823529412,"similar",NA,NA
"370","41",4295,1,"6","Female","Hispanic","","f","d","d",2.23,26.79,1,0,"Bunny","1","Left","BunnyDog",0.55,"similar",NA,NA
"371","43",4793,1,"6","Female","Not Hispanic","Caucasian","f","g","e",2.33,27.95,3,0,"Bottle","1","Left","Bottlecrayon",0.85,"similar",NA,NA
"372","44",6046,0,"6","Male","Not Hispanic","Caucasian","b","d","b",2.27,27.19,4,0,"Flowers","1","Right","FlowersButterfly",0.9,"similar",NA,NA
"373","45",4522,1,"6","Female","Not Hispanic","Caucasian","","d","g",2.39,28.73,5,0,"Dog","1","Right","BunnyDog",0.944444444444444,"similar",NA,NA
"374","46",6734,1,"6","Male","Not Hispanic","Caucasian","e","e","g",2.33,27.91,6,0,"Bread","1","Right","TVBread",0.85,"similar",NA,NA
"375","47",2357,1,"6","Male","Not Hispanic","Asian, Caucasian","f","g","g",2.46,29.52,7,0,"Crayon","1","Right","Bottlecrayon",0.65,"similar",NA,NA
"376","48",3291,1,"6","Female","Not Hispanic","Native Hawaiian & Caucasian","c","d","f",2.26,27.16,8,0,"Butterfly","1","Right","FlowersButterfly",0.9,"similar",NA,NA
"377","49",2410,1,"6","Female","Not Hispanic","Native Hawaiian & Caucasian","c","d","f",2.26,27.16,1,0,"Bunny","1","Left","BunnyDog",0.85,"similar",NA,NA
"378","50",3382,1,"6","Female","Not Hispanic","Asian and Caucasian","d","e","g",2.22,26.7,2,0,"TV","1","Left","TVBread",0.7,"similar",NA,NA
"379","51",4929,1,"6","Male","Not Hispanic","Caucasian","f","g","e",2.47,29.69,3,0,"Bottle","1","Left","Bottlecrayon",0.9,"similar",NA,NA
"380","52",4649,1,"6","Female","Not Hispanic","Caucasian","e","e","c",2.2,26.37,4,0,"Flowers","1","Left","FlowersButterfly",0.8,"similar",NA,NA
"381","53",8175,1,"6","Male","Not Hispanic","Caucasian","e","c","e",2.3,27.55,5,0,"Dog","1","Right","BunnyDog",0.75,"similar",NA,NA
"382","54",7990,0,"6","Female","Hispanic","Caucasian","f","c","d",2.16,25.94,6,0,"Bread","1","Left","TVBread",0.75,"similar",NA,NA
"383","56",2243,1,"6","Female","Not Hispanic","Caucasian","f","g","e",2.45,29.39,8,0,"Butterfly","1","Right","FlowersButterfly",0.9,"similar",NA,NA
"384","58",1500,1,"6","Female","Not Hispanic","African American/Caucasian","f","g","c",2.33,27.95,2,0,"TV","1","Left","TVBread",0.578947368421053,"similar",NA,NA
"385","59",3740,1,"6","Male","Not Hispanic","Caucasian","d","d","e",2.27,27.19,3,0,"Bottle","1","Left","Bottlecrayon",0.85,"similar",NA,NA
"386","60",2367,0,"6","Female","Not Hispanic","Caucasian","c","e","c",2.31,27.68,4,0,"Flowers","1","Right","FlowersButterfly",0.55,"similar",NA,NA
"387","62",6534,0,"6","Female","1/8 Hispanic","Caucasian","d","e","b",2.34,28.04,6,0,"Bread","1","Left","TVBread",0.85,"similar",NA,NA
"388","63",3177,1,"6","Male","Hispanic","","e","c","c",2.36,28.34,7,0,"Crayon","1","Right","Bottlecrayon",0.85,"similar",NA,NA
"389","64",2001,1,"6","","Not Hispanic","Caucasian","c","c","d",2.41,28.96,8,0,"Butterfly","1","Right","FlowersButterfly",0.75,"similar",NA,NA
"390","65",3245,1,"6","Male","","Caucasian","f","e","e",2.48,29.72,1,0,"Bunny","0","Left","BunnyDog",0.9,"similar",NA,NA
"391","66",2599,1,"6","Female","Not Hispanic","Asian/Caucasian","f","g","f",2.41,28.96,2,0,"TV","1","Left","TVBread",0.8,"similar",4,1
"392","67",3995,1,"6","Female","Not Hispanic","Caucasian","e","e","e",2.33,28.01,3,0,"Bottle","1","Left","Bottlecrayon",0.9,"similar",NA,NA
"393","68",3049,0,"6","Male","Not Hispanic","Caucasian","e","c","d",2.32,27.88,4,0,"Flowers","1","Right","FlowersButterfly",0.7,"similar",NA,NA
"394","69",4954,1,"6","Male","Not Hispanic","Caucasian","f","g","g",2.36,28.37,5,0,"Dog","1","Right","BunnyDog",0.85,"similar",NA,NA
"395","71",2293,1,"6","Female","Not Hispanic","Caucasian","e","d","b",2.56,30.71,7,0,"Crayon","1","Right","Bottlecrayon",0.75,"similar",NA,NA
"396","73",1494,1,"6","Male","Not Hispanic","Caucasian","e","e","e",2.27,27.19,1,0,"Bunny","1","Left","BunnyDog",0.7,"similar",NA,NA
"397","74",4441,0,"6","Male","Not Hispanic","Caucasian","f","d","h",2.52,30.21,2,0,"TV","1","Right","TVBread",0.85,"similar",NA,NA
"398","75",1657,1,"6","Female","Not Hispanic","Caucasian","f","e","b",2.56,30.71,3,0,"Bottle","1","Left","Bottlecrayon",0.8,"similar",NA,NA
"399","76",2852,1,"6","Female","Not Hispanic","Caucasian","d","d","d",2.22,26.7,4,0,"Flowers","1","Left","FlowersButterfly",0.9,"similar",NA,NA
"400","77",4247,0,"6","Female","Not Hispanic","African American/Caucasian","e","d","d",2.49,29.85,5,0,"Dog","1","Left","BunnyDog",0.631578947368421,"similar",NA,NA
"401","78",3092,1,"6","Female","Not Hispanic","Caucasian","f","c","d",2.43,29.16,6,0,"Bread","1","Right","TVBread",0.95,"similar",NA,NA
"402","79",4680,1,"6","Male","Hispanic","Caucasian","f","e","e",2.49,29.85,7,0,"Crayon","1","Right","Bottlecrayon",0.7,"similar",NA,NA
"403","80",4698,1,"6","Male","Not Hispanic","Caucasian","f","e","e",2.14,25.68,8,0,"Butterfly","1","Right","FlowersButterfly",0.578947368421053,"similar",NA,NA
"404","81",10186,1,"6","Male ","Hispanic","Caucasian","d","c","d",2.36,28.27,1,0,"Bunny","1","Left","BunnyDog",0.95,"similar",NA,NA
"405","83",1781,0,"6","Male ","Not hipanic ","Caucasian ","d","g","g",2.41,28.9,3,0,"Bottle","0","Right","Bottlecrayon",0.75,"similar",2,0
"406","86",3001,0,"6","Female","Not Hispanic","Caucasian","f","g","d",2.21,26.53,6,0,"Bread","1","Left","TVBread",0.7,"similar",NA,NA
"407","87",2356,0,"6","Male","Hispanic ","Caucasian","e","g","e",2.34,28.11,7,0,"Crayon","1","Left","Bottlecrayon",0.7,"similar",NA,NA
"408","88",3487,1,"6","Male ","Not Hispanic ","Native Hawaiian & Caucasian","c","c","g",2.25,26.99,8,0,"Butterfly","1","Right","FlowersButterfly",0.882352941176471,"similar",NA,NA
"409","90",2676,1,"6","Male","Hispanic","Caucasian","d","g","e",2.52,30.18,2,0,"TV","1","Left","TVBread",0.9,"similar",2,1
"410","91",2629,0,"6","Male","Not Hispanic","African American","f","g","c",2.46,29.49,3,0,"Bottle","1","Right","Bottlecrayon",0.65,"similar",NA,NA
"411","93",9737,1,"6","Female","Not Hispanic","Asian","","","",2.68,32.15,5,0,"Dog","1","Right","BunnyDog",0.9,"similar",NA,NA
"412","95",3083,1,"6","Female","Not Hispanic ","Caucasian","e","e","g",2.85,34.16,6,0,"Bread","1","Right","TVBread",0.95,"similar",1,1
"413","97",2466,1,"6"," Female","Not Hispanic ","Caucasian","d","c","c",2.34,28.11,8,0,"Butterfly","1","Right","FlowersButterfly",0.85,"similar",NA,NA
"414","98",1980,1,"6","Male","Hispanic","American Indian or Alaskan / Caucasian","e","g","d",2.64,31.73,1,0,"Bunny","1","Left","BunnyDog",0.736842105263158,"similar",NA,NA
"415","101",2940,1,"7","Male","Caucasian",NA,"","e","e",2.52,30.21,4,0,"Cat","1","Right","MouseCat",0.85,"similar",NA,NA
"416","102",5421,0,"7","Male ","Caucasian/ Asian-American",NA,"e","g","e",2.38,28.57,5,0,"Apple","1","Right","AppleStrawberry",0.85,"similar",NA,NA
"417","103",1856,1,"7","Female","Caucasian ",NA,"e","c","b",2.68,32.19,6,0,"Orange","1","Left","OrangeBall",0.9,"similar",NA,NA
"418","106",1227,0,"7","Female","Caucasian","","f","e","e",2.55,30.58,2,0,"Ball","1","Left","OrangeBall",0.684210526315789,"similar",NA,NA
"419","107",1156,0,"7","Male","African American, Caucasian, American Indian, Asian-American",NA,"d","g","c",2.6,31.17,3,0,"Pillow","1","Left","EggPillow",0.6,"similar",NA,NA
"420","108",2152,1,"7","Male","Caucasian",NA,"f","e","g",2.43,29.16,4,0,"Cat","1","Right","MouseCat",0.65,"similar",NA,NA
"421","109",1377,0,"7","Male","Caucasion, Asian-American","","f","e","g",2.39,28.67,1,0,"Strawberry","1","Left","AppleStrawberry",0.8,"similar",NA,NA
"422","110",10220,1,"7","Male","Caucasian","","f","e","e",2.44,29.29,6,0,"Orange","1","Left","OrangeBall",0.9,"similar",NA,NA
"423","111",1988,1,"7","Female","Caucasian","","f","e","e",2.64,31.69,7,0,"Egg","1","Left","EggPillow",0.85,"similar",NA,NA
"424","112",3744,0,"7","Male","Caucasian","","f","e","e",2.65,31.86,8,0,"Mouse","1","Right","MouseCat",0.75,"similar",1,0
"425","113",2822,0,"7","Male","Caucasiasian-American","","f","e","b",2.55,30.54,1,0,"Strawberry","1","Left","AppleStrawberry",0.75,"similar",NA,NA
"426","114",6199,1,"7","Male","Non-Hispanic","Caucasian","d","d","d",2.33,27.95,2,0,"Ball","1","Right","OrangeBall",0.95,"similar",NA,NA
"427","116",1656,0,"7","Female","Asian-Russian","","d","e","d",2.49,29.85,4,0,"Cat","1","Left","MouseCat",0.55,"similar",NA,NA
"428","117",1244,1,"7","Male","Non-Hispanic","Caucasian","e","e","g",2.59,31.04,5,0,"Apple","1","Left","AppleStrawberry",0.95,"similar",NA,NA
"429","118",1232,1,"7","Male","Non-Hispanic","Caucasian","f","e","g",2.28,27.39,6,0,"Orange","1","Left","OrangeBall",0.75,"similar",NA,NA
"430","121",1399,0,"7","Female","African American, Caucasian, American Indian, Asian-American","Caucasian","a","c","",2.7,32.45,1,0,"Strawberry","1","Left","AppleStrawberry",0.55,"similar",NA,NA
"431","123",2080,1,"7","Male","Caucasian","","f","g","g",2.64,31.73,3,0,"Pillow","1","Right","EggPillow",0.85,"similar",NA,NA
"432","34",11342,0,"7","Female","Hispanic","Caucasian","d","e","e",2.35,28.21,2,0,"Ball","1","Left","OrangeBall",0.6,"similar",NA,NA
"433","35",3079,1,"7","Male","Non-Hispanic","Asian & Caucasian","f","e","e",2.27,27.25,3,0,"Pillow","1","Right","EggPillow",0.6,"similar",NA,NA
"434","36",4200,1,"7","Female","Non-Hispanic","Caucasian","f","d","g",2.24,26.83,4,0,"Cat","1","Right","MouseCat",0.95,"similar",NA,NA
"435","37",848,0,"7","Female","Non-Hispanic","Caucasian","f","e","e",2.2,26.4,5,0,"Apple","1","Right","AppleStrawberry",0.55,"similar",NA,NA
"436","38",1786,0,"7","Female","Non-Hispanic","Asian & Caucasian","f","d","e",2.21,26.5,6,0,"Orange","1","Right","OrangeBall",0.8,"similar",NA,NA
"437","39",37755,1,"7","Male","Non-Hispanic","Caucasian","c","b","b",2.19,26.24,7,0,"Egg","1","Left","EggPillow",0.9,"similar",NA,NA
"438","40",7403,0,"7","Male","Hispanic","Caucasian","e","g","g",2.33,27.95,8,0,"Mouse","1","Right","MouseCat",0.647058823529412,"similar",NA,NA
"439","41",7584,0,"7","Female","Hispanic","","f","d","d",2.23,26.79,1,0,"Strawberry","1","Left","AppleStrawberry",0.55,"similar",NA,NA
"440","43",4750,0,"7","Female","Not Hispanic","Caucasian","f","g","e",2.33,27.95,3,0,"Pillow","1","Left","EggPillow",0.85,"similar",NA,NA
"441","44",4219,1,"7","Male","Not Hispanic","Caucasian","b","d","b",2.27,27.19,4,0,"Cat","1","Right","MouseCat",0.9,"similar",NA,NA
"442","45",3714,1,"7","Female","Not Hispanic","Caucasian","","d","g",2.39,28.73,5,0,"Apple","1","Left","AppleStrawberry",0.944444444444444,"similar",NA,NA
"443","46",6861,0,"7","Male","Not Hispanic","Caucasian","e","e","g",2.33,27.91,6,0,"Orange","1","Right","OrangeBall",0.85,"similar",NA,NA
"444","47",2454,0,"7","Male","Not Hispanic","Asian, Caucasian","f","g","g",2.46,29.52,7,0,"Egg","1","Right","EggPillow",0.65,"similar",NA,NA
"445","48",4715,0,"7","Female","Not Hispanic","Native Hawaiian & Caucasian","c","d","f",2.26,27.16,8,0,"Mouse","1","Right","MouseCat",0.9,"similar",NA,NA
"446","49",2558,1,"7","Female","Not Hispanic","Native Hawaiian & Caucasian","c","d","f",2.26,27.16,1,0,"Strawberry","1","Right","AppleStrawberry",0.85,"similar",NA,NA
"447","50",2732,1,"7","Female","Not Hispanic","Asian and Caucasian","d","e","g",2.22,26.7,2,0,"Ball","1","Right","OrangeBall",0.7,"similar",NA,NA
"448","51",2728,1,"7","Male","Not Hispanic","Caucasian","f","g","e",2.47,29.69,3,0,"Pillow","1","Right","EggPillow",0.9,"similar",NA,NA
"449","52",4295,0,"7","Female","Not Hispanic","Caucasian","e","e","c",2.2,26.37,4,0,"Cat","1","Left","MouseCat",0.8,"similar",NA,NA
"450","53",14638,0,"7","Male","Not Hispanic","Caucasian","e","c","e",2.3,27.55,5,0,"Apple","1","Right","AppleStrawberry",0.75,"similar",NA,NA
"451","54",3547,1,"7","Female","Hispanic","Caucasian","f","c","d",2.16,25.94,6,0,"Orange","1","Left","OrangeBall",0.75,"similar",1,1
"452","56",2033,1,"7","Female","Not Hispanic","Caucasian","f","g","e",2.45,29.39,8,0,"Mouse","1","Left","MouseCat",0.9,"similar",NA,NA
"453","58",266,0,"7","Female","Not Hispanic","African American/Caucasian","f","g","c",2.33,27.95,2,0,"Ball","1","Left","OrangeBall",0.578947368421053,"similar",NA,NA
"454","59",2261,1,"7","Male","Not Hispanic","Caucasian","d","d","e",2.27,27.19,3,0,"Pillow","1","Right","EggPillow",0.85,"similar",NA,NA
"455","60",3613,0,"7","Female","Not Hispanic","Caucasian","c","e","c",2.31,27.68,4,0,"Cat","1","Left","MouseCat",0.55,"similar",NA,NA
"456","62",3782,1,"7","Female","1/8 Hispanic","Caucasian","d","e","b",2.34,28.04,6,0,"Orange","1","Left","OrangeBall",0.85,"similar",NA,NA
"457","63",3955,1,"7","Male","Hispanic","","e","c","c",2.36,28.34,7,0,"Egg","1","Left","EggPillow",0.85,"similar",NA,NA
"458","64",4191,0,"7","","Not Hispanic","Caucasian","c","c","d",2.41,28.96,8,0,"Mouse","1","Right","MouseCat",0.75,"similar",NA,NA
"459","65",3678,1,"7","Male","","Caucasian","f","e","e",2.48,29.72,1,0,"Strawberry","1","Right","AppleStrawberry",0.9,"similar",NA,NA
"460","66",1881,1,"7","Female","Not Hispanic","Asian/Caucasian","f","g","f",2.41,28.96,2,0,"Ball","1","Right","OrangeBall",0.8,"similar",NA,NA
"461","67",2561,1,"7","Female","Not Hispanic","Caucasian","e","e","e",2.33,28.01,3,0,"Pillow","1","Right","EggPillow",0.9,"similar",NA,NA
"462","68",2695,0,"7","Male","Not Hispanic","Caucasian","e","c","d",2.32,27.88,4,0,"Cat","1","Left","MouseCat",0.7,"similar",NA,NA
"463","69",5778,0,"7","Male","Not Hispanic","Caucasian","f","g","g",2.36,28.37,5,0,"Apple","1","Right","AppleStrawberry",0.85,"similar",NA,NA
"464","71",2616,1,"7","Female","Not Hispanic","Caucasian","e","d","b",2.56,30.71,7,0,"Egg","1","Left","EggPillow",0.75,"similar",NA,NA
"465","73",3077,0,"7","Male","Not Hispanic","Caucasian","e","e","e",2.27,27.19,1,0,"Strawberry","1","Left","AppleStrawberry",0.7,"similar",NA,NA
"466","74",4579,0,"7","Male","Not Hispanic","Caucasian","f","d","h",2.52,30.21,2,0,"Ball","1","Left","OrangeBall",0.85,"similar",NA,NA
"467","75",2356,1,"7","Female","Not Hispanic","Caucasian","f","e","b",2.56,30.71,3,0,"Pillow","1","Right","EggPillow",0.8,"similar",NA,NA
"468","76",2796,1,"7","Female","Not Hispanic","Caucasian","d","d","d",2.22,26.7,4,0,"Cat","1","Right","MouseCat",0.9,"similar",NA,NA
"469","77",4490,1,"7","Female","Not Hispanic","African American/Caucasian","e","d","d",2.49,29.85,5,0,"Apple","1","Left","AppleStrawberry",0.631578947368421,"similar",NA,NA
"470","78",4046,1,"7","Female","Not Hispanic","Caucasian","f","c","d",2.43,29.16,6,0,"Orange","1","Left","OrangeBall",0.95,"similar",NA,NA
"471","79",5695,1,"7","Male","Hispanic","Caucasian","f","e","e",2.49,29.85,7,0,"Egg","1","Left","EggPillow",0.7,"similar",NA,NA
"472","80",5192,0,"7","Male","Not Hispanic","Caucasian","f","e","e",2.14,25.68,8,0,"Mouse","1","Right","MouseCat",0.578947368421053,"similar",NA,NA
"473","81",5938,1,"7","Male ","Hispanic","Caucasian","d","c","d",2.36,28.27,1,0,"Strawberry","1","Right","AppleStrawberry",0.95,"similar",NA,NA
"474","83",2099,1,"7","Male ","Not hipanic ","Caucasian ","d","g","g",2.41,28.9,3,0,"Pillow","1","Right","EggPillow",0.75,"similar",1,1
"475","86",2187,0,"7","Female","Not Hispanic","Caucasian","f","g","d",2.21,26.53,6,0,"Orange","1","Right","OrangeBall",0.7,"similar",NA,NA
"476","87",2281,1,"7","Male","Hispanic ","Caucasian","e","g","e",2.34,28.11,7,0,"Egg","1","Left","EggPillow",0.7,"similar",NA,NA
"477","88",2871,1,"7","Male ","Not Hispanic ","Native Hawaiian & Caucasian","c","c","g",2.25,26.99,8,0,"Mouse","1","Left","MouseCat",0.882352941176471,"similar",NA,NA
"478","90",2391,1,"7","Male","Hispanic","Caucasian","d","g","e",2.52,30.18,2,0,"Ball","1","Right","OrangeBall",0.9,"similar",NA,NA
"479","91",2212,1,"7","Male","Not Hispanic","African American","f","g","c",2.46,29.49,3,0,"Pillow","1","Right","EggPillow",0.65,"similar",NA,NA
"480","93",9381,0,"7","Female","Not Hispanic","Asian","","","",2.68,32.15,5,0,"Apple","1","Right","AppleStrawberry",0.9,"similar",NA,NA
"481","95",7597,1,"7","Female","Not Hispanic ","Caucasian","e","e","g",2.85,34.16,6,0,"Orange","1","Left","OrangeBall",0.95,"similar",1,1
"482","97",4637,1,"7"," Female","Not Hispanic ","Caucasian","d","c","c",2.34,28.11,8,0,"Mouse","1","Left","MouseCat",0.85,"similar",NA,NA
"483","98",2575,0,"7","Male","Hispanic","American Indian or Alaskan / Caucasian","e","g","d",2.64,31.73,1,0,"Strawberry","1","Left","AppleStrawberry",0.736842105263158,"similar",NA,NA
"484","101",11424,0,"8","Male","Caucasian",NA,"","e","e",2.52,30.21,4,0,"Duck","1","Left","PigDuck",0.85,"similar",NA,NA
"485","102",8068,0,"8","Male ","Caucasian/ Asian-American",NA,"e","g","e",2.38,28.57,5,0,"Ice_Cream","1","Right","Ice creamBroccoli",0.85,"similar",NA,NA
"486","103",2068,1,"8","Female","Caucasian ",NA,"e","c","b",2.68,32.19,6,0,"Spoon","1","Left","SpoonFork",0.9,"similar",NA,NA
"487","106",3479,1,"8","Female","Caucasian","","f","e","e",2.55,30.58,2,0,"Fork","1","Right","SpoonFork",0.684210526315789,"similar",NA,NA
"488","107",1135,0,"8","Male","African American, Caucasian, American Indian, Asian-American",NA,"d","g","c",2.6,31.17,3,0,"Doll","0","Left","Teddy BearDoll",0.6,"similar",NA,NA
"489","108",2038,1,"8","Male","Caucasian",NA,"f","e","g",2.43,29.16,4,0,"Duck","1","Right","PigDuck",0.65,"similar",NA,NA
"490","109",1684,0,"8","Male","Caucasion, Asian-American","","f","e","g",2.39,28.67,1,0,"Broccoli","1","Left","Ice creamBroccoli",0.8,"similar",NA,NA
"491","110",2063,1,"8","Male","Caucasian","","f","e","e",2.44,29.29,6,0,"Spoon","1","Left","SpoonFork",0.9,"similar",NA,NA
"492","111",1919,0,"8","Female","Caucasian","","f","e","e",2.64,31.69,7,0,"Teddy_Bear","1","Right","Teddy BearDoll",0.85,"similar",NA,NA
"493","112",1751,1,"8","Male","Caucasian","","f","e","e",2.65,31.86,8,0,"Pig","1","Left","PigDuck",0.75,"similar",0,1
"494","113",2856,0,"8","Male","Caucasiasian-American","","f","e","b",2.55,30.54,1,0,"Broccoli","1","Left","Ice creamBroccoli",0.75,"similar",NA,NA
"495","114",3996,1,"8","Male","Non-Hispanic","Caucasian","d","d","d",2.33,27.95,2,0,"Fork","1","Right","SpoonFork",0.95,"similar",NA,NA
"496","116",1610,1,"8","Female","Asian-Russian","","d","e","d",2.49,29.85,4,0,"Duck","1","Right","PigDuck",0.55,"similar",NA,NA
"497","117",1666,1,"8","Male","Non-Hispanic","Caucasian","e","e","g",2.59,31.04,5,0,"Ice_Cream","1","Left","Ice creamBroccoli",0.95,"similar",NA,NA
"498","118",1389,1,"8","Male","Non-Hispanic","Caucasian","f","e","g",2.28,27.39,6,0,"Spoon","1","Left","SpoonFork",0.75,"similar",NA,NA
"499","121",1444,0,"8","Female","African American, Caucasian, American Indian, Asian-American","Caucasian","a","c","",2.7,32.45,1,0,"Broccoli","1","Left","Ice creamBroccoli",0.55,"similar",NA,NA
"500","123",5490,0,"8","Male","Caucasian","","f","g","g",2.64,31.73,3,0,"Doll","1","Left","Teddy BearDoll",0.85,"similar",NA,NA
"501","34",1887,1,"8","Female","Hispanic","Caucasian","d","e","e",2.35,28.21,2,0,"Fork","1","Right","SpoonFork",0.6,"similar",NA,NA
"502","35",3704,1,"8","Male","Non-Hispanic","Asian & Caucasian","f","e","e",2.27,27.25,3,0,"Doll","1","Right","Teddy BearDoll",0.6,"similar",NA,NA
"503","36",7293,1,"8","Female","Non-Hispanic","Caucasian","f","d","g",2.24,26.83,4,0,"Duck","1","Right","PigDuck",0.95,"similar",NA,NA
"504","37",2134,1,"8","Female","Non-Hispanic","Caucasian","f","e","e",2.2,26.4,5,0,"Ice_Cream","1","Left","Ice creamBroccoli",0.55,"similar",NA,NA
"505","38",2751,1,"8","Female","Non-Hispanic","Asian & Caucasian","f","d","e",2.21,26.5,6,0,"Spoon","1","Left","SpoonFork",0.8,"similar",NA,NA
"506","39",1819,1,"8","Male","Non-Hispanic","Caucasian","c","b","b",2.19,26.24,7,0,"Teddy_Bear","1","Left","Teddy BearDoll",0.9,"similar",NA,NA
"507","40",3418,1,"8","Male","Hispanic","Caucasian","e","g","g",2.33,27.95,8,0,"Pig","1","Left","PigDuck",0.647058823529412,"similar",NA,NA
"508","41",3212,0,"8","Female","Hispanic","","f","d","d",2.23,26.79,1,0,"Broccoli","1","Left","Ice creamBroccoli",0.55,"similar",NA,NA
"509","43",5287,1,"8","Female","Not Hispanic","Caucasian","f","g","e",2.33,27.95,3,0,"Doll","1","Right","Teddy BearDoll",0.85,"similar",NA,NA
"510","44",4061,1,"8","Male","Not Hispanic","Caucasian","b","d","b",2.27,27.19,4,0,"Duck","1","Right","PigDuck",0.9,"similar",NA,NA
"511","45",6015,1,"8","Female","Not Hispanic","Caucasian","","d","g",2.39,28.73,5,0,"Ice_Cream","1","Left","Ice creamBroccoli",0.944444444444444,"similar",NA,NA
"512","46",2516,1,"8","Male","Not Hispanic","Caucasian","e","e","g",2.33,27.91,6,0,"Spoon","1","Left","SpoonFork",0.85,"similar",NA,NA
"513","47",2172,0,"8","Male","Not Hispanic","Asian, Caucasian","f","g","g",2.46,29.52,7,0,"Teddy_Bear","1","Right","Teddy BearDoll",0.65,"similar",NA,NA
"514","48",5454,1,"8","Female","Not Hispanic","Native Hawaiian & Caucasian","c","d","f",2.26,27.16,8,0,"Pig","1","Left","PigDuck",0.9,"similar",NA,NA
"515","49",2836,1,"8","Female","Not Hispanic","Native Hawaiian & Caucasian","c","d","f",2.26,27.16,1,0,"Broccoli","1","Right","Ice creamBroccoli",0.85,"similar",NA,NA
"516","50",4302,0,"8","Female","Not Hispanic","Asian and Caucasian","d","e","g",2.22,26.7,2,0,"Fork","1","Left","SpoonFork",0.7,"similar",NA,NA
"517","51",4827,1,"8","Male","Not Hispanic","Caucasian","f","g","e",2.47,29.69,3,0,"Doll","1","Right","Teddy BearDoll",0.9,"similar",NA,NA
"518","52",10920,1,"8","Female","Not Hispanic","Caucasian","e","e","c",2.2,26.37,4,0,"Duck","1","Right","PigDuck",0.8,"similar",NA,NA
"519","53",5516,1,"8","Male","Not Hispanic","Caucasian","e","c","e",2.3,27.55,5,0,"Ice_Cream","1","Left","Ice creamBroccoli",0.75,"similar",NA,NA
"520","54",3144,1,"8","Female","Hispanic","Caucasian","f","c","d",2.16,25.94,6,0,"Spoon","1","Left","SpoonFork",0.75,"similar",2,1
"521","56",3958,1,"8","Female","Not Hispanic","Caucasian","f","g","e",2.45,29.39,8,0,"Pig","1","Left","PigDuck",0.9,"similar",NA,NA
"522","58",848,0,"8","Female","Not Hispanic","African American/Caucasian","f","g","c",2.33,27.95,2,0,"Fork","1","Left","SpoonFork",0.578947368421053,"similar",NA,NA
"523","59",4579,1,"8","Male","Not Hispanic","Caucasian","d","d","e",2.27,27.19,3,0,"Doll","0","Right","Teddy BearDoll",0.85,"similar",NA,NA
"524","60",1404,1,"8","Female","Not Hispanic","Caucasian","c","e","c",2.31,27.68,4,0,"Duck","0","Right","PigDuck",0.55,"similar",NA,NA
"525","62",2587,1,"8","Female","1/8 Hispanic","Caucasian","d","e","b",2.34,28.04,6,0,"Spoon","1","Left","SpoonFork",0.85,"similar",NA,NA
"526","63",2162,0,"8","Male","Hispanic","","e","c","c",2.36,28.34,7,0,"Teddy_Bear","1","Right","Teddy BearDoll",0.85,"similar",NA,NA
"527","64",3044,0,"8","","Not Hispanic","Caucasian","c","c","d",2.41,28.96,8,0,"Pig","1","Right","PigDuck",0.75,"similar",NA,NA
"528","65",3653,1,"8","Male","","Caucasian","f","e","e",2.48,29.72,1,0,"Broccoli","1","Right","Ice creamBroccoli",0.9,"similar",NA,NA
"529","66",1887,1,"8","Female","Not Hispanic","Asian/Caucasian","f","g","f",2.41,28.96,2,0,"Fork","1","Right","SpoonFork",0.8,"similar",0,1
"530","67",3919,1,"8","Female","Not Hispanic","Caucasian","e","e","e",2.33,28.01,3,0,"Doll","1","Right","Teddy BearDoll",0.9,"similar",NA,NA
"531","68",3366,1,"8","Male","Not Hispanic","Caucasian","e","c","d",2.32,27.88,4,0,"Duck","1","Right","PigDuck",0.7,"similar",NA,NA
"532","69",2980,1,"8","Male","Not Hispanic","Caucasian","f","g","g",2.36,28.37,5,0,"Ice_Cream","1","Left","Ice creamBroccoli",0.85,"similar",NA,NA
"533","71",2846,0,"8","Female","Not Hispanic","Caucasian","e","d","b",2.56,30.71,7,0,"Teddy_Bear","1","Right","Teddy BearDoll",0.75,"similar",NA,NA
"534","73",2767,1,"8","Male","Not Hispanic","Caucasian","e","e","e",2.27,27.19,1,0,"Broccoli","1","Right","Ice creamBroccoli",0.7,"similar",NA,NA
"535","74",22727,1,"8","Male","Not Hispanic","Caucasian","f","d","h",2.52,30.21,2,0,"Fork","1","Right","SpoonFork",0.85,"similar",NA,NA
"536","75",3125,1,"8","Female","Not Hispanic","Caucasian","f","e","b",2.56,30.71,3,0,"Doll","1","Right","Teddy BearDoll",0.8,"similar",NA,NA
"537","76",7132,0,"8","Female","Not Hispanic","Caucasian","d","d","d",2.22,26.7,4,0,"Duck","1","Left","PigDuck",0.9,"similar",NA,NA
"538","77",18650,0,"8","Female","Not Hispanic","African American/Caucasian","e","d","d",2.49,29.85,5,0,"Ice_Cream","1","Right","Ice creamBroccoli",0.631578947368421,"similar",NA,NA
"539","78",2701,1,"8","Female","Not Hispanic","Caucasian","f","c","d",2.43,29.16,6,0,"Spoon","1","Left","SpoonFork",0.95,"similar",NA,NA
"540","79",3138,0,"8","Male","Hispanic","Caucasian","f","e","e",2.49,29.85,7,0,"Teddy_Bear","1","Right","Teddy BearDoll",0.7,"similar",NA,NA
"541","80",4831,0,"8","Male","Not Hispanic","Caucasian","f","e","e",2.14,25.68,8,0,"Pig","1","Right","PigDuck",0.578947368421053,"similar",NA,NA
"542","81",3917,1,"8","Male ","Hispanic","Caucasian","d","c","d",2.36,28.27,1,0,"Broccoli","1","Right","Ice creamBroccoli",0.95,"similar",NA,NA
"543","83",4867,0,"8","Male ","Not hipanic ","Caucasian ","d","g","g",2.41,28.9,3,0,"Doll","1","Left","Teddy BearDoll",0.75,"similar",1,0
"544","86",2352,1,"8","Female","Not Hispanic","Caucasian","f","g","d",2.21,26.53,6,0,"Spoon","1","Left","SpoonFork",0.7,"similar",NA,NA
"545","87",2017,1,"8","Male","Hispanic ","Caucasian","e","g","e",2.34,28.11,7,0,"Teddy_Bear","1","Left","Teddy BearDoll",0.7,"similar",NA,NA
"546","88",3229,1,"8","Male ","Not Hispanic ","Native Hawaiian & Caucasian","c","c","g",2.25,26.99,8,0,"Pig","1","Left","PigDuck",0.882352941176471,"similar",NA,NA
"547","90",2872,1,"8","Male","Hispanic","Caucasian","d","g","e",2.52,30.18,2,0,"Fork","1","Right","SpoonFork",0.9,"similar",1,1
"548","91",3030,0,"8","Male","Not Hispanic","African American","f","g","c",2.46,29.49,3,0,"Doll","0","Left","Teddy BearDoll",0.65,"similar",NA,NA
"549","93",2958,1,"8","Female","Not Hispanic","Asian","","","",2.68,32.15,5,0,"Ice_Cream","1","Left","Ice creamBroccoli",0.9,"similar",NA,NA
"550","95",1948,1,"8","Female","Not Hispanic ","Caucasian","e","e","g",2.85,34.16,6,0,"Spoon","1","Left","SpoonFork",0.95,"similar",2,1
"551","97",3036,1,"8"," Female","Not Hispanic ","Caucasian","d","c","c",2.34,28.11,8,0,"Pig","1","Left","PigDuck",0.85,"similar",NA,NA
"552","98",3929,1,"8","Male","Hispanic","American Indian or Alaskan / Caucasian","e","g","d",2.64,31.73,1,0,"Broccoli","1","Right","Ice creamBroccoli",0.736842105263158,"similar",NA,NA
"553","101",11611,1,"9","Male","Caucasian",NA,"","e","e",2.52,30.21,4,0,"TV","1","Left","TVFork",0.85,"dissimilar",NA,NA
"554","102",2946,1,"9","Male ","Caucasian/ Asian-American",NA,"e","g","e",2.38,28.57,5,0,"Crayon","1","Right","Teddy Bearcrayon",0.85,"dissimilar",NA,NA
"555","103",1295,1,"9","Female","Caucasian ",NA,"e","c","b",2.68,32.19,6,0,"Refrigerator","1","Right","MouseRefrigerator ",0.9,"dissimilar",NA,NA
"556","106",2553,1,"9","Female","Caucasian","","f","e","e",2.55,30.58,2,0,"Mouse","1","Left","MouseRefrigerator ",0.684210526315789,"dissimilar",NA,NA
"557","107",1918,1,"9","Male","African American, Caucasian, American Indian, Asian-American",NA,"d","g","c",2.6,31.17,3,0,"Bunny","1","Left","BunnyStrawberry",0.6,"dissimilar",NA,NA
"558","108",2310,1,"9","Male","Caucasian",NA,"f","e","g",2.43,29.16,4,0,"TV","1","Left","TVFork",0.65,"dissimilar",NA,NA
"559","109",1226,1,"9","Male","Caucasion, Asian-American","","f","e","g",2.39,28.67,1,0,"Teddy_Bear","1","Left","Teddy Bearcrayon",0.8,"dissimilar",NA,NA
"560","110",2386,1,"9","Male","Caucasian","","f","e","e",2.44,29.29,6,0,"Refrigerator","1","Right","MouseRefrigerator ",0.9,"dissimilar",NA,NA
"561","111",3135,1,"9","Female","Caucasian","","f","e","e",2.64,31.69,7,0,"Strawberry","1","Right","BunnyStrawberry",0.85,"dissimilar",NA,NA
"562","112",1487,1,"9","Male","Caucasian","","f","e","e",2.65,31.86,8,0,"Fork","1","Right","TVFork",0.75,"dissimilar",0,1
"563","113",2678,1,"9","Male","Caucasiasian-American","","f","e","b",2.55,30.54,1,0,"Teddy_Bear","1","Left","Teddy Bearcrayon",0.75,"dissimilar",NA,NA
"564","114",4466,1,"9","Male","Non-Hispanic","Caucasian","d","d","d",2.33,27.95,2,0,"Mouse","1","Left","MouseRefrigerator ",0.95,"dissimilar",NA,NA
"565","116",1499,1,"9","Female","Asian-Russian","","d","e","d",2.49,29.85,4,0,"TV","1","Left","TVFork",0.55,"dissimilar",NA,NA
"566","117",2264,1,"9","Male","Non-Hispanic","Caucasian","e","e","g",2.59,31.04,5,0,"Crayon","1","Right","Teddy Bearcrayon",0.95,"dissimilar",NA,NA
"567","118",1433,0,"9","Male","Non-Hispanic","Caucasian","f","e","g",2.28,27.39,6,0,"Refrigerator","1","Left","MouseRefrigerator ",0.75,"dissimilar",NA,NA
"568","121",1438,1,"9","Female","African American, Caucasian, American Indian, Asian-American","Caucasian","a","c","",2.7,32.45,1,0,"Teddy_Bear","1","Left","Teddy Bearcrayon",0.55,"dissimilar",NA,NA
"569","123",2458,0,"9","Male","Caucasian","","f","g","g",2.64,31.73,3,0,"Bunny","1","Right","BunnyStrawberry",0.85,"dissimilar",NA,NA
"570","34",2212,1,"9","Female","Hispanic","Caucasian","d","e","e",2.35,28.21,2,0,"Mouse","0","Left","MouseRefrigerator ",0.6,"dissimilar",NA,NA
"571","35",1871,0,"9","Male","Non-Hispanic","Asian & Caucasian","f","e","e",2.27,27.25,3,0,"Bunny","1","Right","BunnyStrawberry",0.6,"dissimilar",NA,NA
"572","36",5055,1,"9","Female","Non-Hispanic","Caucasian","f","d","g",2.24,26.83,4,0,"TV","1","Left","TVFork",0.95,"dissimilar",NA,NA
"573","37",2611,1,"9","Female","Non-Hispanic","Caucasian","f","e","e",2.2,26.4,5,0,"Crayon","1","Right","Teddy Bearcrayon",0.55,"dissimilar",NA,NA
"574","38",4029,1,"9","Female","Non-Hispanic","Asian & Caucasian","f","d","e",2.21,26.5,6,0,"Refrigerator","1","Right","MouseRefrigerator ",0.8,"dissimilar",NA,NA
"575","39",16228,1,"9","Male","Non-Hispanic","Caucasian","c","b","b",2.19,26.24,7,0,"Strawberry","1","Right","BunnyStrawberry",0.9,"dissimilar",NA,NA
"576","40",3304,1,"9","Male","Hispanic","Caucasian","e","g","g",2.33,27.95,8,0,"Fork","1","Right","TVFork",0.647058823529412,"dissimilar",NA,NA
"577","41",2897,1,"9","Female","Hispanic","","f","d","d",2.23,26.79,1,0,"Teddy_Bear","1","Left","Teddy Bearcrayon",0.55,"dissimilar",NA,NA
"578","43",4386,1,"9","Female","Not Hispanic","Caucasian","f","g","e",2.33,27.95,3,0,"Bunny","1","Left","BunnyStrawberry",0.85,"dissimilar",NA,NA
"579","44",5188,1,"9","Male","Not Hispanic","Caucasian","b","d","b",2.27,27.19,4,0,"TV","1","Left","TVFork",0.9,"dissimilar",NA,NA
"580","45",3640,1,"9","Female","Not Hispanic","Caucasian","","d","g",2.39,28.73,5,0,"Crayon","1","Right","Teddy Bearcrayon",0.944444444444444,"dissimilar",NA,NA
"581","46",5627,1,"9","Male","Not Hispanic","Caucasian","e","e","g",2.33,27.91,6,0,"Refrigerator","1","Right","MouseRefrigerator ",0.85,"dissimilar",NA,NA
"582","47",2830,1,"9","Male","Not Hispanic","Asian, Caucasian","f","g","g",2.46,29.52,7,0,"Strawberry","1","Right","BunnyStrawberry",0.65,"dissimilar",NA,NA
"583","48",1941,1,"9","Female","Not Hispanic","Native Hawaiian & Caucasian","c","d","f",2.26,27.16,8,0,"Fork","1","Right","TVFork",0.9,"dissimilar",NA,NA
"584","49",3081,1,"9","Female","Not Hispanic","Native Hawaiian & Caucasian","c","d","f",2.26,27.16,1,0,"Teddy_Bear","1","Left","Teddy Bearcrayon",0.85,"dissimilar",NA,NA
"585","50",2872,1,"9","Female","Not Hispanic","Asian and Caucasian","d","e","g",2.22,26.7,2,0,"Mouse","1","Left","MouseRefrigerator ",0.7,"dissimilar",NA,NA
"586","51",3971,0,"9","Male","Not Hispanic","Caucasian","f","g","e",2.47,29.69,3,0,"Bunny","1","Right","BunnyStrawberry",0.9,"dissimilar",NA,NA
"587","52",3036,1,"9","Female","Not Hispanic","Caucasian","e","e","c",2.2,26.37,4,0,"TV","1","Left","TVFork",0.8,"dissimilar",NA,NA
"588","53",5070,1,"9","Male","Not Hispanic","Caucasian","e","c","e",2.3,27.55,5,0,"Crayon","1","Right","Teddy Bearcrayon",0.75,"dissimilar",NA,NA
"589","54",5093,1,"9","Female","Hispanic","Caucasian","f","c","d",2.16,25.94,6,0,"Refrigerator","1","Right","MouseRefrigerator ",0.75,"dissimilar",NA,NA
"590","56",1865,1,"9","Female","Not Hispanic","Caucasian","f","g","e",2.45,29.39,8,0,"Fork","1","Right","TVFork",0.9,"dissimilar",NA,NA
"591","58",12998,1,"9","Female","Not Hispanic","African American/Caucasian","f","g","c",2.33,27.95,2,0,"Mouse","1","Left","MouseRefrigerator ",0.578947368421053,"dissimilar",NA,NA
"592","59",1644,0,"9","Male","Not Hispanic","Caucasian","d","d","e",2.27,27.19,3,0,"Bunny","1","Right","BunnyStrawberry",0.85,"dissimilar",NA,NA
"593","60",1511,0,"9","Female","Not Hispanic","Caucasian","c","e","c",2.31,27.68,4,0,"TV","1","Right","TVFork",0.55,"dissimilar",NA,NA
"594","62",4007,1,"9","Female","1/8 Hispanic","Caucasian","d","e","b",2.34,28.04,6,0,"Refrigerator","1","Right","MouseRefrigerator ",0.85,"dissimilar",NA,NA
"595","63",5420,1,"9","Male","Hispanic","","e","c","c",2.36,28.34,7,0,"Strawberry","1","Right","BunnyStrawberry",0.85,"dissimilar",NA,NA
"596","64",6445,1,"9","","Not Hispanic","Caucasian","c","c","d",2.41,28.96,8,0,"Fork","1","Right","TVFork",0.75,"dissimilar",NA,NA
"597","65",3567,1,"9","Male","","Caucasian","f","e","e",2.48,29.72,1,0,"Teddy_Bear","1","Left","Teddy Bearcrayon",0.9,"dissimilar",NA,NA
"598","66",2395,1,"9","Female","Not Hispanic","Asian/Caucasian","f","g","f",2.41,28.96,2,0,"Mouse","1","Left","MouseRefrigerator ",0.8,"dissimilar",0,1
"599","67",2072,0,"9","Female","Not Hispanic","Caucasian","e","e","e",2.33,28.01,3,0,"Bunny","1","Right","BunnyStrawberry",0.9,"dissimilar",NA,NA
"600","68",3410,1,"9","Male","Not Hispanic","Caucasian","e","c","d",2.32,27.88,4,0,"TV","1","Left","TVFork",0.7,"dissimilar",NA,NA
"601","69",2530,1,"9","Male","Not Hispanic","Caucasian","f","g","g",2.36,28.37,5,0,"Crayon","1","Right","Teddy Bearcrayon",0.85,"dissimilar",NA,NA
"602","71",2863,1,"9","Female","Not Hispanic","Caucasian","e","d","b",2.56,30.71,7,0,"Strawberry","1","Right","BunnyStrawberry",0.75,"dissimilar",NA,NA
"603","73",2495,1,"9","Male","Not Hispanic","Caucasian","e","e","e",2.27,27.19,1,0,"Teddy_Bear","0","Left","Teddy Bearcrayon",0.7,"dissimilar",NA,NA
"604","74",4042,1,"9","Male","Not Hispanic","Caucasian","f","d","h",2.52,30.21,2,0,"Mouse","1","Left","MouseRefrigerator ",0.85,"dissimilar",NA,NA
"605","75",2388,0,"9","Female","Not Hispanic","Caucasian","f","e","b",2.56,30.71,3,0,"Bunny","1","Right","BunnyStrawberry",0.8,"dissimilar",NA,NA
"606","76",7745,1,"9","Female","Not Hispanic","Caucasian","d","d","d",2.22,26.7,4,0,"TV","1","Left","TVFork",0.9,"dissimilar",NA,NA
"607","77",10920,1,"9","Female","Not Hispanic","African American/Caucasian","e","d","d",2.49,29.85,5,0,"Crayon","1","Right","Teddy Bearcrayon",0.631578947368421,"dissimilar",NA,NA
"608","78",1860,1,"9","Female","Not Hispanic","Caucasian","f","c","d",2.43,29.16,6,0,"Refrigerator","1","Right","MouseRefrigerator ",0.95,"dissimilar",NA,NA
"609","79",7222,1,"9","Male","Hispanic","Caucasian","f","e","e",2.49,29.85,7,0,"Strawberry","1","Right","BunnyStrawberry",0.7,"dissimilar",NA,NA
"610","80",1961,NA,"9","Male","Not Hispanic","Caucasian","f","e","e",2.14,25.68,8,0,"Fork","1",NA,NA,0.578947368421053,"dissimilar",NA,NA
"611","81",5491,1,"9","Male ","Hispanic","Caucasian","d","c","d",2.36,28.27,1,0,"Teddy_Bear","1","Left","Teddy Bearcrayon",0.95,"dissimilar",NA,NA
"612","83",2713,0,"9","Male ","Not hipanic ","Caucasian ","d","g","g",2.41,28.9,3,0,"Bunny","1","Right","BunnyStrawberry",0.75,"dissimilar",0,0
"613","86",2055,0,"9","Female","Not Hispanic","Caucasian","f","g","d",2.21,26.53,6,0,"Refrigerator","1","Left","MouseRefrigerator ",0.7,"dissimilar",NA,NA
"614","87",5588,1,"9","Male","Hispanic ","Caucasian","e","g","e",2.34,28.11,7,0,"Strawberry","1","Right","BunnyStrawberry",0.7,"dissimilar",NA,NA
"615","88",30118,NA,"9","Male ","Not Hispanic ","Native Hawaiian & Caucasian","c","c","g",2.25,26.99,8,0,"Fork","1",NA,NA,0.882352941176471,"dissimilar",NA,NA
"616","90",1950,1,"9","Male","Hispanic","Caucasian","d","g","e",2.52,30.18,2,0,"Mouse","1","Left","MouseRefrigerator ",0.9,"dissimilar",1,1
"617","91",2649,0,"9","Male","Not Hispanic","African American","f","g","c",2.46,29.49,3,0,"Bunny","1","Right","BunnyStrawberry",0.65,"dissimilar",NA,NA
"618","93",3214,1,"9","Female","Not Hispanic","Asian","","","",2.68,32.15,5,0,"Crayon","1","Right","Teddy Bearcrayon",0.9,"dissimilar",NA,NA
"619","95",2094,1,"9","Female","Not Hispanic ","Caucasian","e","e","g",2.85,34.16,6,0,"Refrigerator","1","Right","MouseRefrigerator ",0.95,"dissimilar",1,1
"620","97",3105,1,"9"," Female","Not Hispanic ","Caucasian","d","c","c",2.34,28.11,8,0,"Fork","1","Right","TVFork",0.85,"dissimilar",NA,NA
"621","98",3950,0,"9","Male","Hispanic","American Indian or Alaskan / Caucasian","e","g","d",2.64,31.73,1,0,"Teddy_Bear","0","Right","Teddy Bearcrayon",0.736842105263158,"dissimilar",NA,NA
"622","101",13579,1,"10","Male","Caucasian",NA,"","e","e",2.52,30.21,4,0,"Pizza","0","Right","ShoePizza",0.85,"dissimilar",NA,NA
"623","102",2629,1,"10","Male ","Caucasian/ Asian-American",NA,"e","g","e",2.38,28.57,5,0,"Jacket","1","Left","JacketPillow",0.85,"dissimilar",NA,NA
"624","103",838,1,"10","Female","Caucasian ",NA,"e","c","b",2.68,32.19,6,0,"Chair","1","Left","ChairGrapes",0.9,"dissimilar",NA,NA
"625","106",1354,1,"10","Female","Caucasian","","f","e","e",2.55,30.58,2,0,"Grapes","1","Right","ChairGrapes",0.684210526315789,"dissimilar",NA,NA
"626","107",1215,1,"10","Male","African American, Caucasian, American Indian, Asian-American",NA,"d","g","c",2.6,31.17,3,0,"Bicycle","1","Right","Ice creamBicycle",0.6,"dissimilar",NA,NA
"627","108",2903,1,"10","Male","Caucasian",NA,"f","e","g",2.43,29.16,4,0,"Pizza","1","Right","ShoePizza",0.65,"dissimilar",NA,NA
"628","109",1103,1,"10","Male","Caucasion, Asian-American","","f","e","g",2.39,28.67,1,0,"Pillow","1","Right","JacketPillow",0.8,"dissimilar",NA,NA
"629","110",2018,1,"10","Male","Caucasian","","f","e","e",2.44,29.29,6,0,"Chair","1","Left","ChairGrapes",0.9,"dissimilar",NA,NA
"630","111",1968,1,"10","Female","Caucasian","","f","e","e",2.64,31.69,7,0,"Ice_Cream","1","Left","Ice creamBicycle",0.85,"dissimilar",NA,NA
"631","112",2230,1,"10","Male","Caucasian","","f","e","e",2.65,31.86,8,0,"Shoe","1","Left","ShoePizza",0.75,"dissimilar",1,1
"632","113",2217,1,"10","Male","Caucasiasian-American","","f","e","b",2.55,30.54,1,0,"Pillow","1","Right","JacketPillow",0.75,"dissimilar",NA,NA
"633","114",4834,1,"10","Male","Non-Hispanic","Caucasian","d","d","d",2.33,27.95,2,0,"Grapes","1","Right","ChairGrapes",0.95,"dissimilar",NA,NA
"634","116",1547,1,"10","Female","Asian-Russian","","d","e","d",2.49,29.85,4,0,"Pizza","1","Right","ShoePizza",0.55,"dissimilar",NA,NA
"635","117",1848,1,"10","Male","Non-Hispanic","Caucasian","e","e","g",2.59,31.04,5,0,"Jacket","1","Left","JacketPillow",0.95,"dissimilar",NA,NA
"636","118",1738,0,"10","Male","Non-Hispanic","Caucasian","f","e","g",2.28,27.39,6,0,"Chair","1","Right","ChairGrapes",0.75,"dissimilar",NA,NA
"637","121",1310,1,"10","Female","African American, Caucasian, American Indian, Asian-American","Caucasian","a","c","",2.7,32.45,1,0,"Pillow","1","Right","JacketPillow",0.55,"dissimilar",NA,NA
"638","123",2255,1,"10","Male","Caucasian","","f","g","g",2.64,31.73,3,0,"Bicycle","1","Right","Ice creamBicycle",0.85,"dissimilar",NA,NA
"639","34",5102,1,"10","Female","Hispanic","Caucasian","d","e","e",2.35,28.21,2,0,"Grapes","0","Right","ChairGrapes",0.6,"dissimilar",NA,NA
"640","35",2589,1,"10","Male","Non-Hispanic","Asian & Caucasian","f","e","e",2.27,27.25,3,0,"Bicycle","1","Right","Ice creamBicycle",0.6,"dissimilar",NA,NA
"641","36",3368,1,"10","Female","Non-Hispanic","Caucasian","f","d","g",2.24,26.83,4,0,"Pizza","1","Right","ShoePizza",0.95,"dissimilar",NA,NA
"642","37",2269,1,"10","Female","Non-Hispanic","Caucasian","f","e","e",2.2,26.4,5,0,"Jacket","1","Left","JacketPillow",0.55,"dissimilar",NA,NA
"643","38",2578,1,"10","Female","Non-Hispanic","Asian & Caucasian","f","d","e",2.21,26.5,6,0,"Chair","1","Left","ChairGrapes",0.8,"dissimilar",NA,NA
"644","39",4477,1,"10","Male","Non-Hispanic","Caucasian","c","b","b",2.19,26.24,7,0,"Ice_Cream","1","Left","Ice creamBicycle",0.9,"dissimilar",NA,NA
"645","40",3743,1,"10","Male","Hispanic","Caucasian","e","g","g",2.33,27.95,8,0,"Shoe","1","Left","ShoePizza",0.647058823529412,"dissimilar",NA,NA
"646","41",3430,0,"10","Female","Hispanic","","f","d","d",2.23,26.79,1,0,"Pillow","1","Left","JacketPillow",0.55,"dissimilar",NA,NA
"647","43",2852,1,"10","Female","Not Hispanic","Caucasian","f","g","e",2.33,27.95,3,0,"Bicycle","1","Right","Ice creamBicycle",0.85,"dissimilar",NA,NA
"648","44",3561,1,"10","Male","Not Hispanic","Caucasian","b","d","b",2.27,27.19,4,0,"Pizza","1","Right","ShoePizza",0.9,"dissimilar",NA,NA
"649","45",5916,1,"10","Female","Not Hispanic","Caucasian","","d","g",2.39,28.73,5,0,"Jacket","1","Left","JacketPillow",0.944444444444444,"dissimilar",NA,NA
"650","46",4148,1,"10","Male","Not Hispanic","Caucasian","e","e","g",2.33,27.91,6,0,"Chair","1","Left","ChairGrapes",0.85,"dissimilar",NA,NA
"651","47",2844,1,"10","Male","Not Hispanic","Asian, Caucasian","f","g","g",2.46,29.52,7,0,"Ice_Cream","1","Left","Ice creamBicycle",0.65,"dissimilar",NA,NA
"652","48",2730,1,"10","Female","Not Hispanic","Native Hawaiian & Caucasian","c","d","f",2.26,27.16,8,0,"Shoe","1","Left","ShoePizza",0.9,"dissimilar",NA,NA
"653","49",2439,1,"10","Female","Not Hispanic","Native Hawaiian & Caucasian","c","d","f",2.26,27.16,1,0,"Pillow","1","Right","JacketPillow",0.85,"dissimilar",NA,NA
"654","50",6511,1,"10","Female","Not Hispanic","Asian and Caucasian","d","e","g",2.22,26.7,2,0,"Grapes","1","Right","ChairGrapes",0.7,"dissimilar",NA,NA
"655","51",2011,1,"10","Male","Not Hispanic","Caucasian","f","g","e",2.47,29.69,3,0,"Bicycle","1","Right","Ice creamBicycle",0.9,"dissimilar",NA,NA
"656","52",2778,1,"10","Female","Not Hispanic","Caucasian","e","e","c",2.2,26.37,4,0,"Pizza","1","Right","ShoePizza",0.8,"dissimilar",NA,NA
"657","53",4919,1,"10","Male","Not Hispanic","Caucasian","e","c","e",2.3,27.55,5,0,"Jacket","1","Left","JacketPillow",0.75,"dissimilar",NA,NA
"658","54",3210,1,"10","Female","Hispanic","Caucasian","f","c","d",2.16,25.94,6,0,"Chair","1","Left","ChairGrapes",0.75,"dissimilar",0,1
"659","56",3694,1,"10","Female","Not Hispanic","Caucasian","f","g","e",2.45,29.39,8,0,"Shoe","1","Left","ShoePizza",0.9,"dissimilar",NA,NA
"660","58",13371,1,"10","Female","Not Hispanic","African American/Caucasian","f","g","c",2.33,27.95,2,0,"Grapes","1","Right","ChairGrapes",0.578947368421053,"dissimilar",NA,NA
"661","59",2395,1,"10","Male","Not Hispanic","Caucasian","d","d","e",2.27,27.19,3,0,"Bicycle","1","Right","Ice creamBicycle",0.85,"dissimilar",NA,NA
"662","60",1441,0,"10","Female","Not Hispanic","Caucasian","c","e","c",2.31,27.68,4,0,"Pizza","1","Left","ShoePizza",0.55,"dissimilar",NA,NA
"663","62",4859,1,"10","Female","1/8 Hispanic","Caucasian","d","e","b",2.34,28.04,6,0,"Chair","1","Left","ChairGrapes",0.85,"dissimilar",NA,NA
"664","63",2394,1,"10","Male","Hispanic","","e","c","c",2.36,28.34,7,0,"Ice_Cream","1","Left","Ice creamBicycle",0.85,"dissimilar",NA,NA
"665","64",4599,1,"10","","Not Hispanic","Caucasian","c","c","d",2.41,28.96,8,0,"Shoe","1","Left","ShoePizza",0.75,"dissimilar",NA,NA
"666","65",6642,1,"10","Male","","Caucasian","f","e","e",2.48,29.72,1,0,"Pillow","1","Right","JacketPillow",0.9,"dissimilar",NA,NA
"667","66",1910,1,"10","Female","Not Hispanic","Asian/Caucasian","f","g","f",2.41,28.96,2,0,"Grapes","1","Right","ChairGrapes",0.8,"dissimilar",0,1
"668","67",2375,1,"10","Female","Not Hispanic","Caucasian","e","e","e",2.33,28.01,3,0,"Bicycle","1","Right","Ice creamBicycle",0.9,"dissimilar",NA,NA
"669","68",3599,1,"10","Male","Not Hispanic","Caucasian","e","c","d",2.32,27.88,4,0,"Pizza","1","Right","ShoePizza",0.7,"dissimilar",NA,NA
"670","69",3214,0,"10","Male","Not Hispanic","Caucasian","f","g","g",2.36,28.37,5,0,"Jacket","1","Right","JacketPillow",0.85,"dissimilar",NA,NA
"671","71",8698,1,"10","Female","Not Hispanic","Caucasian","e","d","b",2.56,30.71,7,0,"Ice_Cream","1","Left","Ice creamBicycle",0.75,"dissimilar",NA,NA
"672","73",1971,1,"10","Male","Not Hispanic","Caucasian","e","e","e",2.27,27.19,1,0,"Pillow","1","Right","JacketPillow",0.7,"dissimilar",NA,NA
"673","74",5026,1,"10","Male","Not Hispanic","Caucasian","f","d","h",2.52,30.21,2,0,"Grapes","1","Right","ChairGrapes",0.85,"dissimilar",NA,NA
"674","75",1702,1,"10","Female","Not Hispanic","Caucasian","f","e","b",2.56,30.71,3,0,"Bicycle","1","Right","Ice creamBicycle",0.8,"dissimilar",NA,NA
"675","76",3868,1,"10","Female","Not Hispanic","Caucasian","d","d","d",2.22,26.7,4,0,"Pizza","1","Right","ShoePizza",0.9,"dissimilar",NA,NA
"676","77",14064,0,"10","Female","Not Hispanic","African American/Caucasian","e","d","d",2.49,29.85,5,0,"Jacket","1","Right","JacketPillow",0.631578947368421,"dissimilar",NA,NA
"677","78",1815,1,"10","Female","Not Hispanic","Caucasian","f","c","d",2.43,29.16,6,0,"Chair","1","Left","ChairGrapes",0.95,"dissimilar",NA,NA
"678","79",5912,1,"10","Male","Hispanic","Caucasian","f","e","e",2.49,29.85,7,0,"Ice_Cream","1","Left","Ice creamBicycle",0.7,"dissimilar",NA,NA
"679","80",2637,0,"10","Male","Not Hispanic","Caucasian","f","e","e",2.14,25.68,8,0,"Shoe","1","Right","ShoePizza",0.578947368421053,"dissimilar",NA,NA
"680","81",7183,1,"10","Male ","Hispanic","Caucasian","d","c","d",2.36,28.27,1,0,"Pillow","1","Right","JacketPillow",0.95,"dissimilar",NA,NA
"681","83",2181,1,"10","Male ","Not hipanic ","Caucasian ","d","g","g",2.41,28.9,3,0,"Bicycle","1","Right","Ice creamBicycle",0.75,"dissimilar",2,1
"682","86",3661,1,"10","Female","Not Hispanic","Caucasian","f","g","d",2.21,26.53,6,0,"Chair","1","Left","ChairGrapes",0.7,"dissimilar",NA,NA
"683","87",1894,1,"10","Male","Hispanic ","Caucasian","e","g","e",2.34,28.11,7,0,"Ice_Cream","1","Left","Ice creamBicycle",0.7,"dissimilar",NA,NA
"684","88",20069,1,"10","Male ","Not Hispanic ","Native Hawaiian & Caucasian","c","c","g",2.25,26.99,8,0,"Shoe","1","Left","ShoePizza",0.882352941176471,"dissimilar",NA,NA
"685","90",2302,1,"10","Male","Hispanic","Caucasian","d","g","e",2.52,30.18,2,0,"Grapes","1","Right","ChairGrapes",0.9,"dissimilar",1,1
"686","91",7716,1,"10","Male","Not Hispanic","African American","f","g","c",2.46,29.49,3,0,"Bicycle","1","Right","Ice creamBicycle",0.65,"dissimilar",NA,NA
"687","93",2793,1,"10","Female","Not Hispanic","Asian","","","",2.68,32.15,5,0,"Jacket","1","Left","JacketPillow",0.9,"dissimilar",NA,NA
"688","95",1688,1,"10","Female","Not Hispanic ","Caucasian","e","e","g",2.85,34.16,6,0,"Chair","1","Left","ChairGrapes",0.95,"dissimilar",0,1
"689","97",3727,1,"10"," Female","Not Hispanic ","Caucasian","d","c","c",2.34,28.11,8,0,"Shoe","1","Left","ShoePizza",0.85,"dissimilar",NA,NA
"690","98",3650,1,"10","Male","Hispanic","American Indian or Alaskan / Caucasian","e","g","d",2.64,31.73,1,0,"Pillow","1","Right","JacketPillow",0.736842105263158,"dissimilar",NA,NA
"691","101",6058,1,"11","Male","Caucasian",NA,"","e","e",2.52,30.21,4,0,"Leaf","1","Right","BottleLeaf",0.85,"dissimilar",NA,NA
"692","102",2369,1,"11","Male ","Caucasian/ Asian-American",NA,"e","g","e",2.38,28.57,5,0,"Pig","1","Left","PigButterfly",0.85,"dissimilar",NA,NA
"693","103",1081,1,"11","Female","Caucasian ",NA,"e","c","b",2.68,32.19,6,0,"Clock","1","Left","ClockDog",0.9,"dissimilar",NA,NA
"694","106",3329,NA,"11","Female","Caucasian","","f","e","e",2.55,30.58,2,0,"Dog","1",NA,NA,0.684210526315789,"dissimilar",NA,NA
"695","107",1556,1,"11","Male","African American, Caucasian, American Indian, Asian-American",NA,"d","g","c",2.6,31.17,3,0,"Bread","1","Right","OrangeBread",0.6,"dissimilar",NA,NA
"696","108",2169,1,"11","Male","Caucasian",NA,"f","e","g",2.43,29.16,4,0,"Leaf","1","Right","BottleLeaf",0.65,"dissimilar",NA,NA
"697","109",1555,1,"11","Male","Caucasion, Asian-American","","f","e","g",2.39,28.67,1,0,"Butterfly","1","Right","PigButterfly",0.8,"dissimilar",NA,NA
"698","110",1989,1,"11","Male","Caucasian","","f","e","e",2.44,29.29,6,0,"Clock","0","Left","ClockDog",0.9,"dissimilar",NA,NA
