"","ID","RT","acc","trial","gender","ethnicity","race","income","mother_edu","father_edu","age_years","age_months","condition","drop","target","familiarity","response","item","similar"
"1","101",3649,1,"1","Male","Caucasian",NA,"","e","e",2.52,30.21,4,0,"Chair","1","Left","ChairRefrigerator","similar"
"2","102",3652,1,"1","Male ","Caucasian/ Asian-American",NA,"e","g","e",2.38,28.57,5,0,"Bear","1","Right","ElephantBear","similar"
"3","103",4634,1,"1","Female","Caucasian ",NA,"e","c","b",2.68,32.19,6,0,"Pizza","1","Right","CookiePizza","similar"
"4","106",1982,1,"1","Female","Caucasian","","f","e","e",2.55,30.58,2,0,"Cookie","1","Left","CookiePizza","similar"
"5","107",15747,0,"1","Male","African American, Caucasian, American Indian, Asian-American",NA,"d","g","c",2.6,31.17,3,0,"Cake","1","Right","CakeHat","similar"
"6","108",3446,0,"1","Male","Caucasian",NA,"f","e","g",2.43,29.16,4,0,"Chair","1","Right","ChairRefrigerator","similar"
"7","109",3349,0,"1","Male","Caucasion, Asian-American","","f","e","g",2.39,28.67,1,0,"Elephant","1","Right","ElephantBear","similar"
"8","110",2320,1,"1","Male","Caucasian","","f","e","e",2.44,29.29,6,0,"Pizza","1","Right","CookiePizza","similar"
"9","111",12386,1,"1","Female","Caucasian","","f","e","e",2.64,31.69,7,0,"Hat","1","Right","CakeHat","similar"
"10","112",1613,0,"1","Male","Caucasian","","f","e","e",2.65,31.86,8,0,"Refrigerator","1","Left","ChairRefrigerator","similar"
"11","113",8067,0,"1","Male","Caucasiasian-American","","f","e","b",2.55,30.54,1,0,"Elephant","1","Right","ElephantBear","similar"
"12","114",4994,1,"1","Male","Non-Hispanic","Caucasian","d","d","d",2.33,27.95,2,0,"Cookie","1","Left","CookiePizza","similar"
"13","116",6159,0,"1","Female","Asian-Russian","","d","e","d",2.49,29.85,4,0,"Chair","1","Right","ChairRefrigerator","similar"
"14","117",4523,1,"1","Male","Non-Hispanic","Caucasian","e","e","g",2.59,31.04,5,0,"Bear","1","Right","ElephantBear","similar"
"15","118",6261,1,"1","Male","Non-Hispanic","Caucasian","f","e","g",2.28,27.39,6,0,"Pizza","1","Right","CookiePizza","similar"
"16","121",6001,0,"1","Female","African American, Caucasian, American Indian, Asian-American","Caucasian","a","c","",2.7,32.45,1,0,"Elephant","1","Right","ElephantBear","similar"
"17","123",3115,1,"1","Male","Caucasian","","f","g","g",2.64,31.73,3,0,"Cake","1","Left","CakeHat","similar"
"18","34",3652,1,"1","Female","Hispanic","Caucasian","d","e","e",2.35,28.21,2,0,"Cookie","1","Left","CookiePizza","similar"
"19","35",5981,0,"1","Male","Non-Hispanic","Asian & Caucasian","f","e","e",2.27,27.25,3,0,"Cake","1","Right","CakeHat","similar"
"20","36",3464,1,"1","Female","Non-Hispanic","Caucasian","f","d","g",2.24,26.83,4,0,"Chair","1","Left","ChairRefrigerator","similar"
"21","37",2719,0,"1","Female","Non-Hispanic","Caucasian","f","e","e",2.2,26.4,5,0,"Bear","1","Left","ElephantBear","similar"
"22","38",6459,0,"1","Female","Non-Hispanic","Asian & Caucasian","f","d","e",2.21,26.5,6,0,"Pizza","1","Left","CookiePizza","similar"
"23","39",4292,1,"1","Male","Non-Hispanic","Caucasian","c","b","b",2.19,26.24,7,0,"Hat","1","Right","CakeHat","similar"
"24","40",13753,0,"1","Male","Hispanic","Caucasian","e","g","g",2.33,27.95,8,0,"Refrigerator","1","Left","ChairRefrigerator","similar"
"25","41",9145,0,"1","Female","Hispanic","","f","d","d",2.23,26.79,1,0,"Elephant","1","Right","ElephantBear","similar"
"26","43",7846,1,"1","Female","Not Hispanic","Caucasian","f","g","e",2.33,27.95,3,0,"Cake","1","Left","CakeHat","similar"
"27","44",9396,1,"1","Male","Not Hispanic","Caucasian","b","d","b",2.27,27.19,4,0,"Chair","1","Left","ChairRefrigerator","similar"
"28","45",3795,1,"1","Female","Not Hispanic","Caucasian","","d","g",2.39,28.73,5,0,"Bear","1","Right","ElephantBear","similar"
"29","46",5414,0,"1","Male","Not Hispanic","Caucasian","e","e","g",2.33,27.91,6,0,"Pizza","1","Left","CookiePizza","similar"
"30","47",9984,0,"1","Male","Not Hispanic","Asian, Caucasian","f","g","g",2.46,29.52,7,0,"Hat","1","Left","CakeHat","similar"
"31","48",12721,0,"1","Female","Not Hispanic","Native Hawaiian & Caucasian","c","d","f",2.26,27.16,8,0,"Refrigerator","1","Left","ChairRefrigerator","similar"
"32","49",2288,0,"1","Female","Not Hispanic","Native Hawaiian & Caucasian","c","d","f",2.26,27.16,1,0,"Elephant","1","Right","ElephantBear","similar"
"33","50",5179,0,"1","Female","Not Hispanic","Asian and Caucasian","d","e","g",2.22,26.7,2,0,"Cookie","1","Right","CookiePizza","similar"
"34","51",10209,0,"1","Male","Not Hispanic","Caucasian","f","g","e",2.47,29.69,3,0,"Cake","1","Right","CakeHat","similar"
"35","53",7753,1,"1","Male","Not Hispanic","Caucasian","e","c","e",2.3,27.55,5,0,"Bear","1","Right","ElephantBear","similar"
"36","54",3703,1,"1","Female","Hispanic","Caucasian","f","c","d",2.16,25.94,6,0,"Pizza","1","Right","CookiePizza","similar"
"37","56",3221,1,"1","Female","Not Hispanic","Caucasian","f","g","e",2.45,29.39,8,0,"Refrigerator","1","Right","ChairRefrigerator","similar"
"38","57",3597,0,"1","Female","Not Hispanic","African American/Caucasian","f","g","c",2.33,27.95,1,0,"Elephant","1","Right","ElephantBear","similar"
"39","58",4480,0,"1","Female","Not Hispanic","African American/Caucasian","f","g","c",2.33,27.95,2,0,"Cookie","1","Right","CookiePizza","similar"
"40","59",6445,1,"1","Male","Not Hispanic","Caucasian","d","d","e",2.27,27.19,3,0,"Cake","1","Left","CakeHat","similar"
"41","60",4096,0,"1","Female","Not Hispanic","Caucasian","c","e","c",2.31,27.68,4,0,"Chair","1","Right","ChairRefrigerator","similar"
"42","62",4782,0,"1","Female","1/8 Hispanic","Caucasian","d","e","b",2.34,28.04,6,0,"Pizza","1","Left","CookiePizza","similar"
"43","63",3274,1,"1","Male","Hispanic","","e","c","c",2.36,28.34,7,0,"Hat","1","Right","CakeHat","similar"
"44","64",4550,1,"1","","Not Hispanic","Caucasian","c","c","d",2.41,28.96,8,0,"Refrigerator","1","Right","ChairRefrigerator","similar"
"45","65",3553,1,"1","Male","","Caucasian","f","e","e",2.48,29.72,1,0,"Elephant","1","Left","ElephantBear","similar"
"46","66",7393,0,"1","Female","Not Hispanic","Asian/Caucasian","f","g","f",2.41,28.96,2,0,"Cookie","1","Right","CookiePizza","similar"
"47","67",4472,1,"1","Female","Not Hispanic","Caucasian","e","e","e",2.33,28.01,3,0,"Cake","1","Left","CakeHat","similar"
"48","68",4719,1,"1","Male","Not Hispanic","Caucasian","e","c","d",2.32,27.88,4,0,"Chair","1","Left","ChairRefrigerator","similar"
"49","69",6995,1,"1","Male","Not Hispanic","Caucasian","f","g","g",2.36,28.37,5,0,"Bear","1","Right","ElephantBear","similar"
"50","70",9721,0,"1","Male","Hispanic","","b","b","b",2.55,30.61,6,0,"Pizza","1","Left","CookiePizza","similar"
"51","73",2916,1,"1","Male","Not Hispanic","Caucasian","e","e","e",2.27,27.19,1,0,"Elephant","1","Left","ElephantBear","similar"
"52","74",5149,1,"1","Male","Not Hispanic","Caucasian","f","d","h",2.52,30.21,2,0,"Cookie","1","Left","CookiePizza","similar"
"53","75",4770,0,"1","Female","Not Hispanic","Caucasian","f","e","b",2.56,30.71,3,0,"Cake","1","Right","CakeHat","similar"
"54","76",4999,1,"1","Female","Not Hispanic","Caucasian","d","d","d",2.22,26.7,4,0,"Chair","1","Left","ChairRefrigerator","similar"
"55","77",8277,0,"1","Female","Not Hispanic","African American/Caucasian","e","d","d",2.49,29.85,5,0,"Bear","1","Left","ElephantBear","similar"
"56","78",3539,0,"1","Female","Not Hispanic","Caucasian","f","c","d",2.43,29.16,6,0,"Pizza","1","Left","CookiePizza","similar"
"57","79",5558,0,"1","Male","Hispanic","Caucasian","f","e","e",2.49,29.85,7,0,"Hat","1","Left","CakeHat","similar"
"58","80",4004,0,"1","Male","Not Hispanic","Caucasian","f","e","e",2.14,25.68,8,0,"Refrigerator","1","Left","ChairRefrigerator","similar"
"59","81",8530,1,"1","Male ","Hispanic","Caucasian","d","c","d",2.36,28.27,1,0,"Elephant","1","Left","ElephantBear","similar"
"60","83",3343,1,"1","Male ","Not hipanic ","Caucasian ","d","g","g",2.41,28.9,3,0,"Cake","1","Left","CakeHat","similar"
"61","84",7806,0,"1","Male ","Hispanic","Caucasian","d","g","c",2.41,28.9,4,0,"Chair","1","Right","ChairRefrigerator","similar"
"62","86",2272,1,"1","Female","Not Hispanic","Caucasian","f","g","d",2.21,26.53,6,0,"Pizza","1","Right","CookiePizza","similar"
"63","87",5520,1,"1","Male","Hispanic ","Caucasian","e","g","e",2.34,28.11,7,0,"Hat","1","Right","CakeHat","similar"
"64","88",6403,0,"1","Male ","Not Hispanic ","Native Hawaiian & Caucasian","c","c","g",2.25,26.99,8,0,"Refrigerator","1","Left","ChairRefrigerator","similar"
"65","90",3130,1,"1","Male","Hispanic","Caucasian","d","g","e",2.52,30.18,2,0,"Cookie","1","Left","CookiePizza","similar"
"66","91",3308,1,"1","Male","Not Hispanic","African American","f","g","c",2.46,29.49,3,0,"Cake","1","Left","CakeHat","similar"
"67","93",5459,1,"1","Female","Not Hispanic","Asian","","","",2.68,32.15,5,0,"Bear","1","Right","ElephantBear","similar"
"68","95",5268,1,"1","Female","Not Hispanic ","Caucasian","e","e","g",2.85,34.16,6,0,"Pizza","1","Right","CookiePizza","similar"
"69","97",4521,1,"1"," Female","Not Hispanic ","Caucasian","d","c","c",2.34,28.11,8,0,"Refrigerator","1","Right","ChairRefrigerator","similar"
"70","98",7975,0,"1","Male","Hispanic","American Indian or Alaskan / Caucasian","e","g","d",2.64,31.73,1,0,"Elephant","1","Right","ElephantBear","similar"
"71","101",2678,1,"2","Male","Caucasian",NA,"","e","e",2.52,30.21,4,0,"Balloons","1","Left","BalloonsGrapes","similar"
"72","102",3526,1,"2","Male ","Caucasian/ Asian-American",NA,"e","g","e",2.38,28.57,5,0,"Bicycle","1","Right","ClockBicycle","similar"
"73","103",3034,1,"2","Female","Caucasian ",NA,"e","c","b",2.68,32.19,6,0,"Sock","1","Right","ShoeSock","similar"
"74","106",4180,1,"2","Female","Caucasian","","f","e","e",2.55,30.58,2,0,"Shoe","1","Left","ShoeSock","similar"
"75","107",2169,0,"2","Male","African American, Caucasian, American Indian, Asian-American",NA,"d","g","c",2.6,31.17,3,0,"Jacket","1","Right","JacketLeaf","similar"
"76","108",2159,1,"2","Male","Caucasian",NA,"f","e","g",2.43,29.16,4,0,"Balloons","1","Left","BalloonsGrapes","similar"
"77","109",1851,1,"2","Male","Caucasion, Asian-American","","f","e","g",2.39,28.67,1,0,"Clock","1","Left","ClockBicycle","similar"
"78","110",1557,0,"2","Male","Caucasian","","f","e","e",2.44,29.29,6,0,"Sock","1","Left","ShoeSock","similar"
"79","111",4383,1,"2","Female","Caucasian","","f","e","e",2.64,31.69,7,0,"Leaf","1","Right","JacketLeaf","similar"
"80","112",3435,1,"2","Male","Caucasian","","f","e","e",2.65,31.86,8,0,"Grapes","1","Right","BalloonsGrapes","similar"
"81","113",4092,1,"2","Male","Caucasiasian-American","","f","e","b",2.55,30.54,1,0,"Clock","1","Left","ClockBicycle","similar"
"82","114",9926,1,"2","Male","Non-Hispanic","Caucasian","d","d","d",2.33,27.95,2,0,"Shoe","1","Left","ShoeSock","similar"
"83","116",2369,1,"2","Female","Asian-Russian","","d","e","d",2.49,29.85,4,0,"Balloons","1","Left","BalloonsGrapes","similar"
"84","117",2166,1,"2","Male","Non-Hispanic","Caucasian","e","e","g",2.59,31.04,5,0,"Bicycle","1","Right","ClockBicycle","similar"
"85","118",3271,1,"2","Male","Non-Hispanic","Caucasian","f","e","g",2.28,27.39,6,0,"Sock","1","Right","ShoeSock","similar"
"86","121",3299,1,"2","Female","African American, Caucasian, American Indian, Asian-American","Caucasian","a","c","",2.7,32.45,1,0,"Clock","1","Left","ClockBicycle","similar"
"87","123",1693,1,"2","Male","Caucasian","","f","g","g",2.64,31.73,3,0,"Jacket","1","Left","JacketLeaf","similar"
"88","34",6701,0,"2","Female","Hispanic","Caucasian","d","e","e",2.35,28.21,2,0,"Shoe","1","Right","ShoeSock","similar"
"89","35",2468,1,"2","Male","Non-Hispanic","Asian & Caucasian","f","e","e",2.27,27.25,3,0,"Jacket","1","Left","JacketLeaf","similar"
"90","36",4028,1,"2","Female","Non-Hispanic","Caucasian","f","d","g",2.24,26.83,4,0,"Balloons","1","Left","BalloonsGrapes","similar"
"91","37",2303,1,"2","Female","Non-Hispanic","Caucasian","f","e","e",2.2,26.4,5,0,"Bicycle","1","Right","ClockBicycle","similar"
"92","38",3844,1,"2","Female","Non-Hispanic","Asian & Caucasian","f","d","e",2.21,26.5,6,0,"Sock","1","Right","ShoeSock","similar"
"93","39",5058,1,"2","Male","Non-Hispanic","Caucasian","c","b","b",2.19,26.24,7,0,"Leaf","1","Right","JacketLeaf","similar"
"94","41",3083,1,"2","Female","Hispanic","","f","d","d",2.23,26.79,1,0,"Clock","1","Left","ClockBicycle","similar"
"95","43",4626,1,"2","Female","Not Hispanic","Caucasian","f","g","e",2.33,27.95,3,0,"Jacket","1","Left","JacketLeaf","similar"
"96","44",4735,1,"2","Male","Not Hispanic","Caucasian","b","d","b",2.27,27.19,4,0,"Balloons","1","Left","BalloonsGrapes","similar"
"97","45",8651,1,"2","Female","Not Hispanic","Caucasian","","d","g",2.39,28.73,5,0,"Bicycle","1","Right","ClockBicycle","similar"
"98","46",2827,1,"2","Male","Not Hispanic","Caucasian","e","e","g",2.33,27.91,6,0,"Sock","1","Right","ShoeSock","similar"
"99","47",2712,1,"2","Male","Not Hispanic","Asian, Caucasian","f","g","g",2.46,29.52,7,0,"Leaf","1","Right","JacketLeaf","similar"
"100","48",6184,1,"2","Female","Not Hispanic","Native Hawaiian & Caucasian","c","d","f",2.26,27.16,8,0,"Grapes","1","Right","BalloonsGrapes","similar"
"101","49",3542,1,"2","Female","Not Hispanic","Native Hawaiian & Caucasian","c","d","f",2.26,27.16,1,0,"Clock","1","Left","ClockBicycle","similar"
"102","50",2325,1,"2","Female","Not Hispanic","Asian and Caucasian","d","e","g",2.22,26.7,2,0,"Shoe","1","Left","ShoeSock","similar"
"103","51",3376,1,"2","Male","Not Hispanic","Caucasian","f","g","e",2.47,29.69,3,0,"Jacket","1","Left","JacketLeaf","similar"
"104","52",3507,1,"2","Female","Not Hispanic","Caucasian","e","e","c",2.2,26.37,4,0,"Balloons","1","Left","BalloonsGrapes","similar"
"105","53",4296,1,"2","Male","Not Hispanic","Caucasian","e","c","e",2.3,27.55,5,0,"Bicycle","1","Right","ClockBicycle","similar"
"106","54",5169,1,"2","Female","Hispanic","Caucasian","f","c","d",2.16,25.94,6,0,"Sock","1","Right","ShoeSock","similar"
"107","56",3410,1,"2","Female","Not Hispanic","Caucasian","f","g","e",2.45,29.39,8,0,"Grapes","1","Right","BalloonsGrapes","similar"
"108","57",3328,0,"2","Female","Not Hispanic","African American/Caucasian","f","g","c",2.33,27.95,1,0,"Clock","1","Right","ClockBicycle","similar"
"109","58",6143,1,"2","Female","Not Hispanic","African American/Caucasian","f","g","c",2.33,27.95,2,0,"Shoe","1","Left","ShoeSock","similar"
"110","59",5476,0,"2","Male","Not Hispanic","Caucasian","d","d","e",2.27,27.19,3,0,"Jacket","1","Right","JacketLeaf","similar"
"111","60",4861,0,"2","Female","Not Hispanic","Caucasian","c","e","c",2.31,27.68,4,0,"Balloons","1","Right","BalloonsGrapes","similar"
"112","62",3197,1,"2","Female","1/8 Hispanic","Caucasian","d","e","b",2.34,28.04,6,0,"Sock","1","Right","ShoeSock","similar"
"113","64",6019,1,"2","","Not Hispanic","Caucasian","c","c","d",2.41,28.96,8,0,"Grapes","1","Right","BalloonsGrapes","similar"
"114","65",6685,1,"2","Male","","Caucasian","f","e","e",2.48,29.72,1,0,"Clock","1","Left","ClockBicycle","similar"
"115","66",2855,1,"2","Female","Not Hispanic","Asian/Caucasian","f","g","f",2.41,28.96,2,0,"Shoe","1","Left","ShoeSock","similar"
"116","67",2072,1,"2","Female","Not Hispanic","Caucasian","e","e","e",2.33,28.01,3,0,"Jacket","1","Left","JacketLeaf","similar"
"117","68",4182,0,"2","Male","Not Hispanic","Caucasian","e","c","d",2.32,27.88,4,0,"Balloons","1","Right","BalloonsGrapes","similar"
"118","69",2187,1,"2","Male","Not Hispanic","Caucasian","f","g","g",2.36,28.37,5,0,"Bicycle","1","Right","ClockBicycle","similar"
"119","70",1811,1,"2","Male","Hispanic","","b","b","b",2.55,30.61,6,0,"Sock","1","Right","ShoeSock","similar"
"120","71",3565,1,"2","Female","Not Hispanic","Caucasian","e","d","b",2.56,30.71,7,0,"Leaf","1","Right","JacketLeaf","similar"
"121","73",2871,0,"2","Male","Not Hispanic","Caucasian","e","e","e",2.27,27.19,1,0,"Clock","1","Right","ClockBicycle","similar"
"122","74",3105,1,"2","Male","Not Hispanic","Caucasian","f","d","h",2.52,30.21,2,0,"Shoe","1","Left","ShoeSock","similar"
"123","75",3022,1,"2","Female","Not Hispanic","Caucasian","f","e","b",2.56,30.71,3,0,"Jacket","1","Left","JacketLeaf","similar"
"124","76",3915,1,"2","Female","Not Hispanic","Caucasian","d","d","d",2.22,26.7,4,0,"Balloons","1","Left","BalloonsGrapes","similar"
"125","77",2599,1,"2","Female","Not Hispanic","African American/Caucasian","e","d","d",2.49,29.85,5,0,"Bicycle","1","Right","ClockBicycle","similar"
"126","78",2811,1,"2","Female","Not Hispanic","Caucasian","f","c","d",2.43,29.16,6,0,"Sock","1","Right","ShoeSock","similar"
"127","79",3707,1,"2","Male","Hispanic","Caucasian","f","e","e",2.49,29.85,7,0,"Leaf","1","Right","JacketLeaf","similar"
"128","80",3428,1,"2","Male","Not Hispanic","Caucasian","f","e","e",2.14,25.68,8,0,"Grapes","1","Right","BalloonsGrapes","similar"
"129","81",6332,1,"2","Male ","Hispanic","Caucasian","d","c","d",2.36,28.27,1,0,"Clock","1","Left","ClockBicycle","similar"
"130","84",3615,1,"2","Male ","Hispanic","Caucasian","d","g","c",2.41,28.9,4,0,"Balloons","1","Left","BalloonsGrapes","similar"
"131","86",2145,1,"2","Female","Not Hispanic","Caucasian","f","g","d",2.21,26.53,6,0,"Sock","1","Right","ShoeSock","similar"
"132","87",2792,0,"2","Male","Hispanic ","Caucasian","e","g","e",2.34,28.11,7,0,"Leaf","1","Left","JacketLeaf","similar"
"133","88",7201,1,"2","Male ","Not Hispanic ","Native Hawaiian & Caucasian","c","c","g",2.25,26.99,8,0,"Grapes","1","Right","BalloonsGrapes","similar"
"134","89",1574,1,"2","Female","Not Hispanic","Caucasian ","d","b","b",2.21,26.47,1,0,"Clock","1","Left","ClockBicycle","similar"
"135","90",2656,1,"2","Male","Hispanic","Caucasian","d","g","e",2.52,30.18,2,0,"Shoe","1","Left","ShoeSock","similar"
"136","91",8818,1,"2","Male","Not Hispanic","African American","f","g","c",2.46,29.49,3,0,"Jacket","1","Left","JacketLeaf","similar"
"137","93",3459,1,"2","Female","Not Hispanic","Asian","","","",2.68,32.15,5,0,"Bicycle","1","Right","ClockBicycle","similar"
"138","95",3829,1,"2","Female","Not Hispanic ","Caucasian","e","e","g",2.85,34.16,6,0,"Sock","1","Right","ShoeSock","similar"
"139","97",11717,1,"2"," Female","Not Hispanic ","Caucasian","d","c","c",2.34,28.11,8,0,"Grapes","1","Right","BalloonsGrapes","similar"
"140","101",2395,1,"3","Male","Caucasian",NA,"","e","e",2.52,30.21,4,0,"Ball","1","Right","SpoonBall","dissimilar"
"141","102",2773,1,"3","Male ","Caucasian/ Asian-American",NA,"e","g","e",2.38,28.57,5,0,"Cake","1","Left","CakeDoll","dissimilar"
"142","103",3540,1,"3","Female","Caucasian ",NA,"e","c","b",2.68,32.19,6,0,"Balloons","1","Left","BalloonsDuck ","dissimilar"
"143","106",2629,1,"3","Female","Caucasian","","f","e","e",2.55,30.58,2,0,"Duck","1","Right","BalloonsDuck ","dissimilar"
"144","107",2411,1,"3","Male","African American, Caucasian, American Indian, Asian-American",NA,"d","g","c",2.6,31.17,3,0,"Bear","1","Right","AppleBear","dissimilar"
"145","108",3652,1,"3","Male","Caucasian",NA,"f","e","g",2.43,29.16,4,0,"Ball","1","Right","SpoonBall","dissimilar"
"146","109",3087,1,"3","Male","Caucasion, Asian-American","","f","e","g",2.39,28.67,1,0,"Doll","1","Right","CakeDoll","dissimilar"
"147","110",2639,1,"3","Male","Caucasian","","f","e","e",2.44,29.29,6,0,"Balloons","1","Left","BalloonsDuck ","dissimilar"
"148","111",2504,1,"3","Female","Caucasian","","f","e","e",2.64,31.69,7,0,"Apple","1","Left","AppleBear","dissimilar"
"149","112",1622,1,"3","Male","Caucasian","","f","e","e",2.65,31.86,8,0,"Spoon","1","Left","SpoonBall","dissimilar"
"150","113",12155,0,"3","Male","Caucasiasian-American","","f","e","b",2.55,30.54,1,0,"Doll","1","Left","CakeDoll","dissimilar"
"151","114",8541,1,"3","Male","Non-Hispanic","Caucasian","d","d","d",2.33,27.95,2,0,"Duck","1","Right","BalloonsDuck ","dissimilar"
"152","116",1725,1,"3","Female","Asian-Russian","","d","e","d",2.49,29.85,4,0,"Ball","1","Right","SpoonBall","dissimilar"
"153","117",2137,1,"3","Male","Non-Hispanic","Caucasian","e","e","g",2.59,31.04,5,0,"Cake","1","Left","CakeDoll","dissimilar"
"154","118",2141,1,"3","Male","Non-Hispanic","Caucasian","f","e","g",2.28,27.39,6,0,"Balloons","1","Left","BalloonsDuck ","dissimilar"
"155","121",2135,1,"3","Female","African American, Caucasian, American Indian, Asian-American","Caucasian","a","c","",2.7,32.45,1,0,"Doll","1","Right","CakeDoll","dissimilar"
"156","123",2118,1,"3","Male","Caucasian","","f","g","g",2.64,31.73,3,0,"Bear","1","Right","AppleBear","dissimilar"
"157","34",4379,0,"3","Female","Hispanic","Caucasian","d","e","e",2.35,28.21,2,0,"Duck","1","Left","BalloonsDuck ","dissimilar"
"158","35",4231,1,"3","Male","Non-Hispanic","Asian & Caucasian","f","e","e",2.27,27.25,3,0,"Bear","1","Right","AppleBear","dissimilar"
"159","36",2885,1,"3","Female","Non-Hispanic","Caucasian","f","d","g",2.24,26.83,4,0,"Ball","1","Right","SpoonBall","dissimilar"
"160","37",2393,1,"3","Female","Non-Hispanic","Caucasian","f","e","e",2.2,26.4,5,0,"Cake","1","Left","CakeDoll","dissimilar"
"161","38",3786,1,"3","Female","Non-Hispanic","Asian & Caucasian","f","d","e",2.21,26.5,6,0,"Balloons","1","Left","BalloonsDuck ","dissimilar"
"162","39",12952,1,"3","Male","Non-Hispanic","Caucasian","c","b","b",2.19,26.24,7,0,"Apple","1","Left","AppleBear","dissimilar"
"163","40",15821,1,"3","Male","Hispanic","Caucasian","e","g","g",2.33,27.95,8,0,"Spoon","1","Left","SpoonBall","dissimilar"
"164","41",4306,1,"3","Female","Hispanic","","f","d","d",2.23,26.79,1,0,"Doll","1","Right","CakeDoll","dissimilar"
"165","43",4293,1,"3","Female","Not Hispanic","Caucasian","f","g","e",2.33,27.95,3,0,"Bear","1","Right","AppleBear","dissimilar"
"166","44",3816,1,"3","Male","Not Hispanic","Caucasian","b","d","b",2.27,27.19,4,0,"Ball","1","Right","SpoonBall","dissimilar"
"167","45",3743,1,"3","Female","Not Hispanic","Caucasian","","d","g",2.39,28.73,5,0,"Cake","1","Left","CakeDoll","dissimilar"
"168","46",1368,1,"3","Male","Not Hispanic","Caucasian","e","e","g",2.33,27.91,6,0,"Balloons","1","Left","BalloonsDuck ","dissimilar"
"169","47",1796,1,"3","Male","Not Hispanic","Asian, Caucasian","f","g","g",2.46,29.52,7,0,"Apple","1","Left","AppleBear","dissimilar"
"170","48",2224,1,"3","Female","Not Hispanic","Native Hawaiian & Caucasian","c","d","f",2.26,27.16,8,0,"Spoon","1","Left","SpoonBall","dissimilar"
"171","49",4834,0,"3","Female","Not Hispanic","Native Hawaiian & Caucasian","c","d","f",2.26,27.16,1,0,"Doll","1","Left","CakeDoll","dissimilar"
"172","50",3058,1,"3","Female","Not Hispanic","Asian and Caucasian","d","e","g",2.22,26.7,2,0,"Duck","1","Right","BalloonsDuck ","dissimilar"
"173","51",3052,1,"3","Male","Not Hispanic","Caucasian","f","g","e",2.47,29.69,3,0,"Bear","1","Right","AppleBear","dissimilar"
"174","52",3964,1,"3","Female","Not Hispanic","Caucasian","e","e","c",2.2,26.37,4,0,"Ball","1","Right","SpoonBall","dissimilar"
"175","53",3913,1,"3","Male","Not Hispanic","Caucasian","e","c","e",2.3,27.55,5,0,"Cake","1","Left","CakeDoll","dissimilar"
"176","54",5296,1,"3","Female","Hispanic","Caucasian","f","c","d",2.16,25.94,6,0,"Balloons","1","Left","BalloonsDuck ","dissimilar"
"177","56",4803,1,"3","Female","Not Hispanic","Caucasian","f","g","e",2.45,29.39,8,0,"Spoon","1","Left","SpoonBall","dissimilar"
"178","57",6561,0,"3","Female","Not Hispanic","African American/Caucasian","f","g","c",2.33,27.95,1,0,"Doll","1","Left","CakeDoll","dissimilar"
"179","59",4190,1,"3","Male","Not Hispanic","Caucasian","d","d","e",2.27,27.19,3,0,"Bear","1","Right","AppleBear","dissimilar"
"180","60",1983,1,"3","Female","Not Hispanic","Caucasian","c","e","c",2.31,27.68,4,0,"Ball","1","Right","SpoonBall","dissimilar"
"181","62",4262,1,"3","Female","1/8 Hispanic","Caucasian","d","e","b",2.34,28.04,6,0,"Balloons","1","Left","BalloonsDuck ","dissimilar"
"182","63",3497,1,"3","Male","Hispanic","","e","c","c",2.36,28.34,7,0,"Apple","1","Left","AppleBear","dissimilar"
"183","64",3955,1,"3","","Not Hispanic","Caucasian","c","c","d",2.41,28.96,8,0,"Spoon","1","Left","SpoonBall","dissimilar"
"184","65",4989,1,"3","Male","","Caucasian","f","e","e",2.48,29.72,1,0,"Doll","1","Right","CakeDoll","dissimilar"
"185","66",2745,1,"3","Female","Not Hispanic","Asian/Caucasian","f","g","f",2.41,28.96,2,0,"Duck","1","Right","BalloonsDuck ","dissimilar"
"186","67",2106,1,"3","Female","Not Hispanic","Caucasian","e","e","e",2.33,28.01,3,0,"Bear","1","Right","AppleBear","dissimilar"
"187","68",3210,1,"3","Male","Not Hispanic","Caucasian","e","c","d",2.32,27.88,4,0,"Ball","1","Right","SpoonBall","dissimilar"
"188","69",8779,1,"3","Male","Not Hispanic","Caucasian","f","g","g",2.36,28.37,5,0,"Cake","1","Left","CakeDoll","dissimilar"
"189","70",1726,1,"3","Male","Hispanic","","b","b","b",2.55,30.61,6,0,"Balloons","1","Left","BalloonsDuck ","dissimilar"
"190","71",3064,1,"3","Female","Not Hispanic","Caucasian","e","d","b",2.56,30.71,7,0,"Apple","1","Left","AppleBear","dissimilar"
"191","74",9276,1,"3","Male","Not Hispanic","Caucasian","f","d","h",2.52,30.21,2,0,"Duck","1","Right","BalloonsDuck ","dissimilar"
"192","75",2280,1,"3","Female","Not Hispanic","Caucasian","f","e","b",2.56,30.71,3,0,"Bear","1","Right","AppleBear","dissimilar"
"193","76",2350,1,"3","Female","Not Hispanic","Caucasian","d","d","d",2.22,26.7,4,0,"Ball","1","Right","SpoonBall","dissimilar"
"194","77",4813,1,"3","Female","Not Hispanic","African American/Caucasian","e","d","d",2.49,29.85,5,0,"Cake","1","Left","CakeDoll","dissimilar"
"195","78",2946,1,"3","Female","Not Hispanic","Caucasian","f","c","d",2.43,29.16,6,0,"Balloons","1","Left","BalloonsDuck ","dissimilar"
"196","79",2147,1,"3","Male","Hispanic","Caucasian","f","e","e",2.49,29.85,7,0,"Apple","1","Left","AppleBear","dissimilar"
"197","80",1630,1,"3","Male","Not Hispanic","Caucasian","f","e","e",2.14,25.68,8,0,"Spoon","1","Left","SpoonBall","dissimilar"
"198","81",3125,1,"3","Male ","Hispanic","Caucasian","d","c","d",2.36,28.27,1,0,"Doll","1","Right","CakeDoll","dissimilar"
"199","83",2397,1,"3","Male ","Not hipanic ","Caucasian ","d","g","g",2.41,28.9,3,0,"Bear","1","Right","AppleBear","dissimilar"
"200","84",2292,1,"3","Male ","Hispanic","Caucasian","d","g","c",2.41,28.9,4,0,"Ball","1","Right","SpoonBall","dissimilar"
"201","86",2097,0,"3","Female","Not Hispanic","Caucasian","f","g","d",2.21,26.53,6,0,"Balloons","1","Right","BalloonsDuck ","dissimilar"
"202","87",3826,1,"3","Male","Hispanic ","Caucasian","e","g","e",2.34,28.11,7,0,"Apple","1","Left","AppleBear","dissimilar"
"203","88",5821,1,"3","Male ","Not Hispanic ","Native Hawaiian & Caucasian","c","c","g",2.25,26.99,8,0,"Spoon","1","Left","SpoonBall","dissimilar"
"204","89",3614,0,"3","Female","Not Hispanic","Caucasian ","d","b","b",2.21,26.47,1,0,"Doll","1","Left","CakeDoll","dissimilar"
"205","90",2494,1,"3","Male","Hispanic","Caucasian","d","g","e",2.52,30.18,2,0,"Duck","1","Right","BalloonsDuck ","dissimilar"
"206","91",4137,1,"3","Male","Not Hispanic","African American","f","g","c",2.46,29.49,3,0,"Bear","1","Right","AppleBear","dissimilar"
"207","93",4052,1,"3","Female","Not Hispanic","Asian","","","",2.68,32.15,5,0,"Cake","1","Left","CakeDoll","dissimilar"
"208","95",2022,1,"3","Female","Not Hispanic ","Caucasian","e","e","g",2.85,34.16,6,0,"Balloons","1","Left","BalloonsDuck ","dissimilar"
"209","97",4674,0,"3"," Female","Not Hispanic ","Caucasian","d","c","c",2.34,28.11,8,0,"Spoon","1","Right","SpoonBall","dissimilar"
"210","98",2479,1,"3","Male","Hispanic","American Indian or Alaskan / Caucasian","e","g","d",2.64,31.73,1,0,"Doll","1","Right","CakeDoll","dissimilar"
"211","101",3568,0,"4","Male","Caucasian",NA,"","e","e",2.52,30.21,4,0,"Cookie","1","Right","CookieSock","dissimilar"
"212","102",10617,1,"4","Male ","Caucasian/ Asian-American",NA,"e","g","e",2.38,28.57,5,0,"Hat","1","Right","EggHat","dissimilar"
"213","103",2799,1,"4","Female","Caucasian ",NA,"e","c","b",2.68,32.19,6,0,"Cat","1","Right","FlowersCat","dissimilar"
"214","106",3627,1,"4","Female","Caucasian","","f","e","e",2.55,30.58,2,0,"Flowers","1","Left","FlowersCat","dissimilar"
"215","107",1608,0,"4","Male","African American, Caucasian, American Indian, Asian-American",NA,"d","g","c",2.6,31.17,3,0,"Elephant","1","Right","ElephantBroccoli","dissimilar"
"216","108",1986,0,"4","Male","Caucasian",NA,"f","e","g",2.43,29.16,4,0,"Cookie","1","Right","CookieSock","dissimilar"
"217","109",2536,1,"4","Male","Caucasion, Asian-American","","f","e","g",2.39,28.67,1,0,"Egg","1","Left","EggHat","dissimilar"
"218","110",3939,1,"4","Male","Caucasian","","f","e","e",2.44,29.29,6,0,"Cat","1","Right","FlowersCat","dissimilar"
"219","111",2955,1,"4","Female","Caucasian","","f","e","e",2.64,31.69,7,0,"Broccoli","1","Right","ElephantBroccoli","dissimilar"
"220","112",2058,1,"4","Male","Caucasian","","f","e","e",2.65,31.86,8,0,"Sock","1","Right","CookieSock","dissimilar"
"221","113",5513,1,"4","Male","Caucasiasian-American","","f","e","b",2.55,30.54,1,0,"Egg","1","Left","EggHat","dissimilar"
"222","114",6192,1,"4","Male","Non-Hispanic","Caucasian","d","d","d",2.33,27.95,2,0,"Flowers","1","Left","FlowersCat","dissimilar"
"223","116",1627,1,"4","Female","Asian-Russian","","d","e","d",2.49,29.85,4,0,"Cookie","1","Left","CookieSock","dissimilar"
"224","117",1928,1,"4","Male","Non-Hispanic","Caucasian","e","e","g",2.59,31.04,5,0,"Hat","1","Right","EggHat","dissimilar"
"225","118",2686,1,"4","Male","Non-Hispanic","Caucasian","f","e","g",2.28,27.39,6,0,"Cat","1","Right","FlowersCat","dissimilar"
"226","121",4450,0,"4","Female","African American, Caucasian, American Indian, Asian-American","Caucasian","a","c","",2.7,32.45,1,0,"Egg","1","Right","EggHat","dissimilar"
"227","123",2938,1,"4","Male","Caucasian","","f","g","g",2.64,31.73,3,0,"Elephant","1","Left","ElephantBroccoli","dissimilar"
"228","34",5103,1,"4","Female","Hispanic","Caucasian","d","e","e",2.35,28.21,2,0,"Flowers","1","Left","FlowersCat","dissimilar"
"229","35",4329,1,"4","Male","Non-Hispanic","Asian & Caucasian","f","e","e",2.27,27.25,3,0,"Elephant","1","Left","ElephantBroccoli","dissimilar"
"230","36",4842,1,"4","Female","Non-Hispanic","Caucasian","f","d","g",2.24,26.83,4,0,"Cookie","1","Left","CookieSock","dissimilar"
"231","37",1927,0,"4","Female","Non-Hispanic","Caucasian","f","e","e",2.2,26.4,5,0,"Hat","1","Left","EggHat","dissimilar"
"232","38",3236,1,"4","Female","Non-Hispanic","Asian & Caucasian","f","d","e",2.21,26.5,6,0,"Cat","1","Right","FlowersCat","dissimilar"
"233","39",16057,1,"4","Male","Non-Hispanic","Caucasian","c","b","b",2.19,26.24,7,0,"Broccoli","1","Right","ElephantBroccoli","dissimilar"
"234","40",4927,1,"4","Male","Hispanic","Caucasian","e","g","g",2.33,27.95,8,0,"Sock","1","Right","CookieSock","dissimilar"
"235","41",4717,1,"4","Female","Hispanic","","f","d","d",2.23,26.79,1,0,"Egg","1","Left","EggHat","dissimilar"
"236","43",9933,0,"4","Female","Not Hispanic","Caucasian","f","g","e",2.33,27.95,3,0,"Elephant","1","Right","ElephantBroccoli","dissimilar"
"237","44",6755,1,"4","Male","Not Hispanic","Caucasian","b","d","b",2.27,27.19,4,0,"Cookie","1","Left","CookieSock","dissimilar"
"238","45",3988,1,"4","Female","Not Hispanic","Caucasian","","d","g",2.39,28.73,5,0,"Hat","1","Right","EggHat","dissimilar"
"239","46",3884,1,"4","Male","Not Hispanic","Caucasian","e","e","g",2.33,27.91,6,0,"Cat","1","Right","FlowersCat","dissimilar"
"240","47",2226,0,"4","Male","Not Hispanic","Asian, Caucasian","f","g","g",2.46,29.52,7,0,"Broccoli","1","Left","ElephantBroccoli","dissimilar"
"241","48",4627,1,"4","Female","Not Hispanic","Native Hawaiian & Caucasian","c","d","f",2.26,27.16,8,0,"Sock","1","Right","CookieSock","dissimilar"
"242","49",3094,1,"4","Female","Not Hispanic","Native Hawaiian & Caucasian","c","d","f",2.26,27.16,1,0,"Egg","1","Left","EggHat","dissimilar"
"243","50",3607,1,"4","Female","Not Hispanic","Asian and Caucasian","d","e","g",2.22,26.7,2,0,"Flowers","1","Left","FlowersCat","dissimilar"
"244","51",2917,1,"4","Male","Not Hispanic","Caucasian","f","g","e",2.47,29.69,3,0,"Elephant","1","Left","ElephantBroccoli","dissimilar"
"245","52",5247,1,"4","Female","Not Hispanic","Caucasian","e","e","c",2.2,26.37,4,0,"Cookie","1","Left","CookieSock","dissimilar"
"246","53",4255,1,"4","Male","Not Hispanic","Caucasian","e","c","e",2.3,27.55,5,0,"Hat","1","Right","EggHat","dissimilar"
"247","54",2636,1,"4","Female","Hispanic","Caucasian","f","c","d",2.16,25.94,6,0,"Cat","1","Right","FlowersCat","dissimilar"
"248","56",4328,1,"4","Female","Not Hispanic","Caucasian","f","g","e",2.45,29.39,8,0,"Sock","1","Right","CookieSock","dissimilar"
"249","57",5144,0,"4","Female","Not Hispanic","African American/Caucasian","f","g","c",2.33,27.95,1,0,"Egg","1","Right","EggHat","dissimilar"
"250","58",15120,0,"4","Female","Not Hispanic","African American/Caucasian","f","g","c",2.33,27.95,2,0,"Flowers","1","Right","FlowersCat","dissimilar"
"251","59",1722,0,"4","Male","Not Hispanic","Caucasian","d","d","e",2.27,27.19,3,0,"Elephant","1","Right","ElephantBroccoli","dissimilar"
"252","60",1870,1,"4","Female","Not Hispanic","Caucasian","c","e","c",2.31,27.68,4,0,"Cookie","1","Left","CookieSock","dissimilar"
"253","62",3472,1,"4","Female","1/8 Hispanic","Caucasian","d","e","b",2.34,28.04,6,0,"Cat","1","Right","FlowersCat","dissimilar"
"254","64",5386,1,"4","","Not Hispanic","Caucasian","c","c","d",2.41,28.96,8,0,"Sock","1","Right","CookieSock","dissimilar"
"255","65",2460,0,"4","Male","","Caucasian","f","e","e",2.48,29.72,1,0,"Egg","1","Right","EggHat","dissimilar"
"256","66",2007,1,"4","Female","Not Hispanic","Asian/Caucasian","f","g","f",2.41,28.96,2,0,"Flowers","1","Left","FlowersCat","dissimilar"
"257","67",2422,1,"4","Female","Not Hispanic","Caucasian","e","e","e",2.33,28.01,3,0,"Elephant","1","Left","ElephantBroccoli","dissimilar"
"258","68",4458,1,"4","Male","Not Hispanic","Caucasian","e","c","d",2.32,27.88,4,0,"Cookie","1","Left","CookieSock","dissimilar"
"259","69",5328,0,"4","Male","Not Hispanic","Caucasian","f","g","g",2.36,28.37,5,0,"Hat","1","Left","EggHat","dissimilar"
"260","70",2007,0,"4","Male","Hispanic","","b","b","b",2.55,30.61,6,0,"Cat","1","Left","FlowersCat","dissimilar"
"261","71",5197,0,"4","Female","Not Hispanic","Caucasian","e","d","b",2.56,30.71,7,0,"Broccoli","1","Left","ElephantBroccoli","dissimilar"
"262","73",1586,0,"4","Male","Not Hispanic","Caucasian","e","e","e",2.27,27.19,1,0,"Egg","1","Right","EggHat","dissimilar"
"263","74",4584,1,"4","Male","Not Hispanic","Caucasian","f","d","h",2.52,30.21,2,0,"Flowers","1","Left","FlowersCat","dissimilar"
"264","75",2124,0,"4","Female","Not Hispanic","Caucasian","f","e","b",2.56,30.71,3,0,"Elephant","1","Right","ElephantBroccoli","dissimilar"
"265","76",2798,1,"4","Female","Not Hispanic","Caucasian","d","d","d",2.22,26.7,4,0,"Cookie","1","Left","CookieSock","dissimilar"
"266","77",3722,0,"4","Female","Not Hispanic","African American/Caucasian","e","d","d",2.49,29.85,5,0,"Hat","1","Left","EggHat","dissimilar"
"267","78",4761,1,"4","Female","Not Hispanic","Caucasian","f","c","d",2.43,29.16,6,0,"Cat","1","Right","FlowersCat","dissimilar"
"268","79",5500,0,"4","Male","Hispanic","Caucasian","f","e","e",2.49,29.85,7,0,"Broccoli","1","Left","ElephantBroccoli","dissimilar"
"269","80",3392,1,"4","Male","Not Hispanic","Caucasian","f","e","e",2.14,25.68,8,0,"Sock","1","Right","CookieSock","dissimilar"
"270","81",3977,1,"4","Male ","Hispanic","Caucasian","d","c","d",2.36,28.27,1,0,"Egg","1","Left","EggHat","dissimilar"
"271","83",2554,1,"4","Male ","Not hipanic ","Caucasian ","d","g","g",2.41,28.9,3,0,"Elephant","1","Left","ElephantBroccoli","dissimilar"
"272","84",1778,0,"4","Male ","Hispanic","Caucasian","d","g","c",2.41,28.9,4,0,"Cookie","1","Right","CookieSock","dissimilar"
"273","86",2679,1,"4","Female","Not Hispanic","Caucasian","f","g","d",2.21,26.53,6,0,"Cat","1","Right","FlowersCat","dissimilar"
"274","87",5121,1,"4","Male","Hispanic ","Caucasian","e","g","e",2.34,28.11,7,0,"Broccoli","1","Right","ElephantBroccoli","dissimilar"
"275","88",1570,1,"4","Male ","Not Hispanic ","Native Hawaiian & Caucasian","c","c","g",2.25,26.99,8,0,"Sock","1","Right","CookieSock","dissimilar"
"276","89",1515,0,"4","Female","Not Hispanic","Caucasian ","d","b","b",2.21,26.47,1,0,"Egg","1","Right","EggHat","dissimilar"
"277","90",3182,1,"4","Male","Hispanic","Caucasian","d","g","e",2.52,30.18,2,0,"Flowers","1","Left","FlowersCat","dissimilar"
"278","91",2889,1,"4","Male","Not Hispanic","African American","f","g","c",2.46,29.49,3,0,"Elephant","1","Left","ElephantBroccoli","dissimilar"
"279","93",2852,1,"4","Female","Not Hispanic","Asian","","","",2.68,32.15,5,0,"Hat","1","Right","EggHat","dissimilar"
"280","95",2068,1,"4","Female","Not Hispanic ","Caucasian","e","e","g",2.85,34.16,6,0,"Cat","1","Right","FlowersCat","dissimilar"
"281","97",3099,0,"4"," Female","Not Hispanic ","Caucasian","d","c","c",2.34,28.11,8,0,"Sock","1","Left","CookieSock","dissimilar"
"282","98",3874,1,"4","Male","Hispanic","American Indian or Alaskan / Caucasian","e","g","d",2.64,31.73,1,0,"Egg","1","Left","EggHat","dissimilar"
"283","101",8582,1,"5","Male","Caucasian",NA,"","e","e",2.52,30.21,4,0,"Bread","1","Right","OrangeBread","dissimilar"
"284","102",7634,1,"5","Male ","Caucasian/ Asian-American",NA,"e","g","e",2.38,28.57,5,0,"Bottle","1","Left","BottleLeaf","dissimilar"
"285","103",2801,1,"5","Female","Caucasian ",NA,"e","c","b",2.68,32.19,6,0,"Pig","1","Left","PigButterfly","dissimilar"
"286","106",1577,1,"5","Female","Caucasian","","f","e","e",2.55,30.58,2,0,"Butterfly","1","Right","PigButterfly","dissimilar"
"287","107",1718,1,"5","Male","African American, Caucasian, American Indian, Asian-American",NA,"d","g","c",2.6,31.17,3,0,"Dog","1","Right","ClockDog","dissimilar"
"288","108",1153,0,"5","Male","Caucasian",NA,"f","e","g",2.43,29.16,4,0,"Bread","1","Left","OrangeBread","dissimilar"
"289","109",3611,1,"5","Male","Caucasion, Asian-American","","f","e","g",2.39,28.67,1,0,"Leaf","1","Right","BottleLeaf","dissimilar"
"290","110",3674,0,"5","Male","Caucasian","","f","e","e",2.44,29.29,6,0,"Pig","1","Right","PigButterfly","dissimilar"
"291","111",2176,1,"5","Female","Caucasian","","f","e","e",2.64,31.69,7,0,"Clock","1","Left","ClockDog","dissimilar"
"292","112",2119,1,"5","Male","Caucasian","","f","e","e",2.65,31.86,8,0,"Orange","1","Left","OrangeBread","dissimilar"
"293","113",3391,1,"5","Male","Caucasiasian-American","","f","e","b",2.55,30.54,1,0,"Leaf","1","Right","BottleLeaf","dissimilar"
"294","114",6718,1,"5","Male","Non-Hispanic","Caucasian","d","d","d",2.33,27.95,2,0,"Butterfly","1","Right","PigButterfly","dissimilar"
"295","116",1226,1,"5","Female","Asian-Russian","","d","e","d",2.49,29.85,4,0,"Bread","1","Right","OrangeBread","dissimilar"
"296","117",1512,1,"5","Male","Non-Hispanic","Caucasian","e","e","g",2.59,31.04,5,0,"Bottle","1","Left","BottleLeaf","dissimilar"
"297","118",1974,1,"5","Male","Non-Hispanic","Caucasian","f","e","g",2.28,27.39,6,0,"Pig","1","Left","PigButterfly","dissimilar"
"298","121",2084,1,"5","Female","African American, Caucasian, American Indian, Asian-American","Caucasian","a","c","",2.7,32.45,1,0,"Leaf","1","Right","BottleLeaf","dissimilar"
"299","123",3059,1,"5","Male","Caucasian","","f","g","g",2.64,31.73,3,0,"Dog","1","Right","ClockDog","dissimilar"
"300","34",2558,1,"5","Female","Hispanic","Caucasian","d","e","e",2.35,28.21,2,0,"Butterfly","1","Right","PigButterfly","dissimilar"
"301","35",2652,1,"5","Male","Non-Hispanic","Asian & Caucasian","f","e","e",2.27,27.25,3,0,"Dog","1","Right","ClockDog","dissimilar"
"302","36",2743,1,"5","Female","Non-Hispanic","Caucasian","f","d","g",2.24,26.83,4,0,"Bread","1","Right","OrangeBread","dissimilar"
"303","37",2355,1,"5","Female","Non-Hispanic","Caucasian","f","e","e",2.2,26.4,5,0,"Bottle","1","Left","BottleLeaf","dissimilar"
"304","38",2653,1,"5","Female","Non-Hispanic","Asian & Caucasian","f","d","e",2.21,26.5,6,0,"Pig","1","Left","PigButterfly","dissimilar"
"305","39",2712,1,"5","Male","Non-Hispanic","Caucasian","c","b","b",2.19,26.24,7,0,"Clock","1","Left","ClockDog","dissimilar"
"306","40",4231,0,"5","Male","Hispanic","Caucasian","e","g","g",2.33,27.95,8,0,"Orange","1","Right","OrangeBread","dissimilar"
"307","41",3321,1,"5","Female","Hispanic","","f","d","d",2.23,26.79,1,0,"Leaf","1","Right","BottleLeaf","dissimilar"
"308","43",4515,1,"5","Female","Not Hispanic","Caucasian","f","g","e",2.33,27.95,3,0,"Dog","1","Right","ClockDog","dissimilar"
"309","45",3814,1,"5","Female","Not Hispanic","Caucasian","","d","g",2.39,28.73,5,0,"Bottle","1","Left","BottleLeaf","dissimilar"
"310","46",2326,1,"5","Male","Not Hispanic","Caucasian","e","e","g",2.33,27.91,6,0,"Pig","1","Left","PigButterfly","dissimilar"
"311","48",6574,1,"5","Female","Not Hispanic","Native Hawaiian & Caucasian","c","d","f",2.26,27.16,8,0,"Orange","1","Left","OrangeBread","dissimilar"
"312","49",2833,1,"5","Female","Not Hispanic","Native Hawaiian & Caucasian","c","d","f",2.26,27.16,1,0,"Leaf","1","Right","BottleLeaf","dissimilar"
"313","50",2488,1,"5","Female","Not Hispanic","Asian and Caucasian","d","e","g",2.22,26.7,2,0,"Butterfly","1","Right","PigButterfly","dissimilar"
"314","51",2752,1,"5","Male","Not Hispanic","Caucasian","f","g","e",2.47,29.69,3,0,"Dog","1","Right","ClockDog","dissimilar"
"315","52",4716,1,"5","Female","Not Hispanic","Caucasian","e","e","c",2.2,26.37,4,0,"Bread","1","Right","OrangeBread","dissimilar"
"316","53",2266,1,"5","Male","Not Hispanic","Caucasian","e","c","e",2.3,27.55,5,0,"Bottle","1","Left","BottleLeaf","dissimilar"
"317","54",3038,1,"5","Female","Hispanic","Caucasian","f","c","d",2.16,25.94,6,0,"Pig","1","Left","PigButterfly","dissimilar"
"318","56",3155,1,"5","Female","Not Hispanic","Caucasian","f","g","e",2.45,29.39,8,0,"Orange","1","Left","OrangeBread","dissimilar"
"319","57",2911,1,"5","Female","Not Hispanic","African American/Caucasian","f","g","c",2.33,27.95,1,0,"Leaf","1","Right","BottleLeaf","dissimilar"
"320","58",2692,1,"5","Female","Not Hispanic","African American/Caucasian","f","g","c",2.33,27.95,2,0,"Butterfly","1","Right","PigButterfly","dissimilar"
"321","59",3062,1,"5","Male","Not Hispanic","Caucasian","d","d","e",2.27,27.19,3,0,"Dog","1","Right","ClockDog","dissimilar"
"322","60",1429,1,"5","Female","Not Hispanic","Caucasian","c","e","c",2.31,27.68,4,0,"Bread","1","Right","OrangeBread","dissimilar"
"323","62",4541,1,"5","Female","1/8 Hispanic","Caucasian","d","e","b",2.34,28.04,6,0,"Pig","1","Left","PigButterfly","dissimilar"
"324","63",2011,1,"5","Male","Hispanic","","e","c","c",2.36,28.34,7,0,"Clock","1","Left","ClockDog","dissimilar"
"325","64",5570,1,"5","","Not Hispanic","Caucasian","c","c","d",2.41,28.96,8,0,"Orange","1","Left","OrangeBread","dissimilar"
"326","66",1355,1,"5","Female","Not Hispanic","Asian/Caucasian","f","g","f",2.41,28.96,2,0,"Butterfly","1","Right","PigButterfly","dissimilar"
"327","67",1880,1,"5","Female","Not Hispanic","Caucasian","e","e","e",2.33,28.01,3,0,"Dog","1","Right","ClockDog","dissimilar"
"328","68",4765,1,"5","Male","Not Hispanic","Caucasian","e","c","d",2.32,27.88,4,0,"Bread","1","Right","OrangeBread","dissimilar"
"329","69",2894,1,"5","Male","Not Hispanic","Caucasian","f","g","g",2.36,28.37,5,0,"Bottle","1","Left","BottleLeaf","dissimilar"
"330","73",1718,1,"5","Male","Not Hispanic","Caucasian","e","e","e",2.27,27.19,1,0,"Leaf","1","Right","BottleLeaf","dissimilar"
"331","74",3586,1,"5","Male","Not Hispanic","Caucasian","f","d","h",2.52,30.21,2,0,"Butterfly","1","Right","PigButterfly","dissimilar"
"332","75",1747,1,"5","Female","Not Hispanic","Caucasian","f","e","b",2.56,30.71,3,0,"Dog","1","Right","ClockDog","dissimilar"
"333","76",3001,1,"5","Female","Not Hispanic","Caucasian","d","d","d",2.22,26.7,4,0,"Bread","1","Right","OrangeBread","dissimilar"
"334","77",6578,1,"5","Female","Not Hispanic","African American/Caucasian","e","d","d",2.49,29.85,5,0,"Bottle","1","Left","BottleLeaf","dissimilar"
"335","78",3073,1,"5","Female","Not Hispanic","Caucasian","f","c","d",2.43,29.16,6,0,"Pig","1","Left","PigButterfly","dissimilar"
"336","79",6569,1,"5","Male","Hispanic","Caucasian","f","e","e",2.49,29.85,7,0,"Clock","1","Left","ClockDog","dissimilar"
"337","80",1288,1,"5","Male","Not Hispanic","Caucasian","f","e","e",2.14,25.68,8,0,"Orange","1","Left","OrangeBread","dissimilar"
"338","81",5176,1,"5","Male ","Hispanic","Caucasian","d","c","d",2.36,28.27,1,0,"Leaf","1","Right","BottleLeaf","dissimilar"
"339","83",2203,1,"5","Male ","Not hipanic ","Caucasian ","d","g","g",2.41,28.9,3,0,"Dog","1","Right","ClockDog","dissimilar"
"340","84",1281,1,"5","Male ","Hispanic","Caucasian","d","g","c",2.41,28.9,4,0,"Bread","1","Right","OrangeBread","dissimilar"
"341","86",2268,1,"5","Female","Not Hispanic","Caucasian","f","g","d",2.21,26.53,6,0,"Pig","1","Left","PigButterfly","dissimilar"
"342","87",2426,0,"5","Male","Hispanic ","Caucasian","e","g","e",2.34,28.11,7,0,"Clock","1","Right","ClockDog","dissimilar"
"343","88",1720,1,"5","Male ","Not Hispanic ","Native Hawaiian & Caucasian","c","c","g",2.25,26.99,8,0,"Orange","1","Left","OrangeBread","dissimilar"
"344","90",3141,1,"5","Male","Hispanic","Caucasian","d","g","e",2.52,30.18,2,0,"Butterfly","1","Right","PigButterfly","dissimilar"
"345","91",2488,1,"5","Male","Not Hispanic","African American","f","g","c",2.46,29.49,3,0,"Dog","1","Right","ClockDog","dissimilar"
"346","93",1941,1,"5","Female","Not Hispanic","Asian","","","",2.68,32.15,5,0,"Bottle","1","Left","BottleLeaf","dissimilar"
"347","95",4387,1,"5","Female","Not Hispanic ","Caucasian","e","e","g",2.85,34.16,6,0,"Pig","1","Left","PigButterfly","dissimilar"
"348","97",3404,1,"5"," Female","Not Hispanic ","Caucasian","d","c","c",2.34,28.11,8,0,"Orange","1","Left","OrangeBread","dissimilar"
"349","98",3353,1,"5","Male","Hispanic","American Indian or Alaskan / Caucasian","e","g","d",2.64,31.73,1,0,"Leaf","1","Right","BottleLeaf","dissimilar"
"350","101",8138,0,"6","Male","Caucasian",NA,"","e","e",2.52,30.21,4,0,"Flowers","1","Right","FlowersButterfly","similar"
"351","102",4977,1,"6","Male ","Caucasian/ Asian-American",NA,"e","g","e",2.38,28.57,5,0,"Dog","1","Right","BunnyDog","similar"
"352","103",2082,1,"6","Female","Caucasian ",NA,"e","c","b",2.68,32.19,6,0,"Bread","1","Right","TVBread","similar"
"353","106",1649,1,"6","Female","Caucasian","","f","e","e",2.55,30.58,2,0,"TV","1","Left","TVBread","similar"
"354","107",2063,1,"6","Male","African American, Caucasian, American Indian, Asian-American",NA,"d","g","c",2.6,31.17,3,0,"Bottle","1","Left","Bottlecrayon","similar"
"355","108",2092,1,"6","Male","Caucasian",NA,"f","e","g",2.43,29.16,4,0,"Flowers","1","Left","FlowersButterfly","similar"
"356","109",2137,1,"6","Male","Caucasion, Asian-American","","f","e","g",2.39,28.67,1,0,"Bunny","1","Left","BunnyDog","similar"
"357","110",3904,1,"6","Male","Caucasian","","f","e","e",2.44,29.29,6,0,"Bread","1","Right","TVBread","similar"
"358","111",2506,1,"6","Female","Caucasian","","f","e","e",2.64,31.69,7,0,"Crayon","1","Right","Bottlecrayon","similar"
"359","112",2783,1,"6","Male","Caucasian","","f","e","e",2.65,31.86,8,0,"Butterfly","1","Right","FlowersButterfly","similar"
"360","113",3584,1,"6","Male","Caucasiasian-American","","f","e","b",2.55,30.54,1,0,"Bunny","1","Left","BunnyDog","similar"
"361","114",4259,1,"6","Male","Non-Hispanic","Caucasian","d","d","d",2.33,27.95,2,0,"TV","1","Left","TVBread","similar"
"362","116",1363,0,"6","Female","Asian-Russian","","d","e","d",2.49,29.85,4,0,"Flowers","1","Right","FlowersButterfly","similar"
"363","117",1967,1,"6","Male","Non-Hispanic","Caucasian","e","e","g",2.59,31.04,5,0,"Dog","1","Right","BunnyDog","similar"
"364","118",2439,1,"6","Male","Non-Hispanic","Caucasian","f","e","g",2.28,27.39,6,0,"Bread","1","Right","TVBread","similar"
"365","121",1794,1,"6","Female","African American, Caucasian, American Indian, Asian-American","Caucasian","a","c","",2.7,32.45,1,0,"Bunny","1","Left","BunnyDog","similar"
"366","123",1860,1,"6","Male","Caucasian","","f","g","g",2.64,31.73,3,0,"Bottle","1","Left","Bottlecrayon","similar"
"367","34",3241,1,"6","Female","Hispanic","Caucasian","d","e","e",2.35,28.21,2,0,"TV","1","Left","TVBread","similar"
"368","36",5247,1,"6","Female","Non-Hispanic","Caucasian","f","d","g",2.24,26.83,4,0,"Flowers","1","Left","FlowersButterfly","similar"
"369","37",2705,1,"6","Female","Non-Hispanic","Caucasian","f","e","e",2.2,26.4,5,0,"Dog","1","Right","BunnyDog","similar"
"370","38",21461,0,"6","Female","Non-Hispanic","Asian & Caucasian","f","d","e",2.21,26.5,6,0,"Bread","1","Left","TVBread","similar"
"371","39",4071,1,"6","Male","Non-Hispanic","Caucasian","c","b","b",2.19,26.24,7,0,"Crayon","1","Right","Bottlecrayon","similar"
"372","40",4722,1,"6","Male","Hispanic","Caucasian","e","g","g",2.33,27.95,8,0,"Butterfly","1","Right","FlowersButterfly","similar"
"373","41",4295,1,"6","Female","Hispanic","","f","d","d",2.23,26.79,1,0,"Bunny","1","Left","BunnyDog","similar"
"374","43",4793,1,"6","Female","Not Hispanic","Caucasian","f","g","e",2.33,27.95,3,0,"Bottle","1","Left","Bottlecrayon","similar"
"375","44",6046,0,"6","Male","Not Hispanic","Caucasian","b","d","b",2.27,27.19,4,0,"Flowers","1","Right","FlowersButterfly","similar"
"376","45",4522,1,"6","Female","Not Hispanic","Caucasian","","d","g",2.39,28.73,5,0,"Dog","1","Right","BunnyDog","similar"
"377","46",6734,1,"6","Male","Not Hispanic","Caucasian","e","e","g",2.33,27.91,6,0,"Bread","1","Right","TVBread","similar"
"378","47",2357,1,"6","Male","Not Hispanic","Asian, Caucasian","f","g","g",2.46,29.52,7,0,"Crayon","1","Right","Bottlecrayon","similar"
"379","48",3291,1,"6","Female","Not Hispanic","Native Hawaiian & Caucasian","c","d","f",2.26,27.16,8,0,"Butterfly","1","Right","FlowersButterfly","similar"
"380","49",2410,1,"6","Female","Not Hispanic","Native Hawaiian & Caucasian","c","d","f",2.26,27.16,1,0,"Bunny","1","Left","BunnyDog","similar"
"381","50",3382,1,"6","Female","Not Hispanic","Asian and Caucasian","d","e","g",2.22,26.7,2,0,"TV","1","Left","TVBread","similar"
"382","51",4929,1,"6","Male","Not Hispanic","Caucasian","f","g","e",2.47,29.69,3,0,"Bottle","1","Left","Bottlecrayon","similar"
"383","52",4649,1,"6","Female","Not Hispanic","Caucasian","e","e","c",2.2,26.37,4,0,"Flowers","1","Left","FlowersButterfly","similar"
"384","53",8175,1,"6","Male","Not Hispanic","Caucasian","e","c","e",2.3,27.55,5,0,"Dog","1","Right","BunnyDog","similar"
"385","54",7990,0,"6","Female","Hispanic","Caucasian","f","c","d",2.16,25.94,6,0,"Bread","1","Left","TVBread","similar"
"386","56",2243,1,"6","Female","Not Hispanic","Caucasian","f","g","e",2.45,29.39,8,0,"Butterfly","1","Right","FlowersButterfly","similar"
"387","57",3223,1,"6","Female","Not Hispanic","African American/Caucasian","f","g","c",2.33,27.95,1,0,"Bunny","1","Left","BunnyDog","similar"
"388","58",1500,1,"6","Female","Not Hispanic","African American/Caucasian","f","g","c",2.33,27.95,2,0,"TV","1","Left","TVBread","similar"
"389","59",3740,1,"6","Male","Not Hispanic","Caucasian","d","d","e",2.27,27.19,3,0,"Bottle","1","Left","Bottlecrayon","similar"
"390","60",2367,0,"6","Female","Not Hispanic","Caucasian","c","e","c",2.31,27.68,4,0,"Flowers","1","Right","FlowersButterfly","similar"
"391","62",6534,0,"6","Female","1/8 Hispanic","Caucasian","d","e","b",2.34,28.04,6,0,"Bread","1","Left","TVBread","similar"
"392","63",3177,1,"6","Male","Hispanic","","e","c","c",2.36,28.34,7,0,"Crayon","1","Right","Bottlecrayon","similar"
"393","64",2001,1,"6","","Not Hispanic","Caucasian","c","c","d",2.41,28.96,8,0,"Butterfly","1","Right","FlowersButterfly","similar"
"394","66",2599,1,"6","Female","Not Hispanic","Asian/Caucasian","f","g","f",2.41,28.96,2,0,"TV","1","Left","TVBread","similar"
"395","67",3995,1,"6","Female","Not Hispanic","Caucasian","e","e","e",2.33,28.01,3,0,"Bottle","1","Left","Bottlecrayon","similar"
"396","68",3049,0,"6","Male","Not Hispanic","Caucasian","e","c","d",2.32,27.88,4,0,"Flowers","1","Right","FlowersButterfly","similar"
"397","69",4954,1,"6","Male","Not Hispanic","Caucasian","f","g","g",2.36,28.37,5,0,"Dog","1","Right","BunnyDog","similar"
"398","71",2293,1,"6","Female","Not Hispanic","Caucasian","e","d","b",2.56,30.71,7,0,"Crayon","1","Right","Bottlecrayon","similar"
"399","73",1494,1,"6","Male","Not Hispanic","Caucasian","e","e","e",2.27,27.19,1,0,"Bunny","1","Left","BunnyDog","similar"
"400","74",4441,0,"6","Male","Not Hispanic","Caucasian","f","d","h",2.52,30.21,2,0,"TV","1","Right","TVBread","similar"
"401","75",1657,1,"6","Female","Not Hispanic","Caucasian","f","e","b",2.56,30.71,3,0,"Bottle","1","Left","Bottlecrayon","similar"
"402","76",2852,1,"6","Female","Not Hispanic","Caucasian","d","d","d",2.22,26.7,4,0,"Flowers","1","Left","FlowersButterfly","similar"
"403","77",4247,0,"6","Female","Not Hispanic","African American/Caucasian","e","d","d",2.49,29.85,5,0,"Dog","1","Left","BunnyDog","similar"
"404","78",3092,1,"6","Female","Not Hispanic","Caucasian","f","c","d",2.43,29.16,6,0,"Bread","1","Right","TVBread","similar"
"405","79",4680,1,"6","Male","Hispanic","Caucasian","f","e","e",2.49,29.85,7,0,"Crayon","1","Right","Bottlecrayon","similar"
"406","80",4698,1,"6","Male","Not Hispanic","Caucasian","f","e","e",2.14,25.68,8,0,"Butterfly","1","Right","FlowersButterfly","similar"
"407","81",10186,1,"6","Male ","Hispanic","Caucasian","d","c","d",2.36,28.27,1,0,"Bunny","1","Left","BunnyDog","similar"
"408","84",1446,1,"6","Male ","Hispanic","Caucasian","d","g","c",2.41,28.9,4,0,"Flowers","1","Left","FlowersButterfly","similar"
"409","86",3001,0,"6","Female","Not Hispanic","Caucasian","f","g","d",2.21,26.53,6,0,"Bread","1","Left","TVBread","similar"
"410","87",2356,0,"6","Male","Hispanic ","Caucasian","e","g","e",2.34,28.11,7,0,"Crayon","1","Left","Bottlecrayon","similar"
"411","88",3487,1,"6","Male ","Not Hispanic ","Native Hawaiian & Caucasian","c","c","g",2.25,26.99,8,0,"Butterfly","1","Right","FlowersButterfly","similar"
"412","89",4754,1,"6","Female","Not Hispanic","Caucasian ","d","b","b",2.21,26.47,1,0,"Bunny","1","Left","BunnyDog","similar"
"413","90",2676,1,"6","Male","Hispanic","Caucasian","d","g","e",2.52,30.18,2,0,"TV","1","Left","TVBread","similar"
"414","91",2629,0,"6","Male","Not Hispanic","African American","f","g","c",2.46,29.49,3,0,"Bottle","1","Right","Bottlecrayon","similar"
"415","93",9737,1,"6","Female","Not Hispanic","Asian","","","",2.68,32.15,5,0,"Dog","1","Right","BunnyDog","similar"
"416","95",3083,1,"6","Female","Not Hispanic ","Caucasian","e","e","g",2.85,34.16,6,0,"Bread","1","Right","TVBread","similar"
"417","97",2466,1,"6"," Female","Not Hispanic ","Caucasian","d","c","c",2.34,28.11,8,0,"Butterfly","1","Right","FlowersButterfly","similar"
"418","98",1980,1,"6","Male","Hispanic","American Indian or Alaskan / Caucasian","e","g","d",2.64,31.73,1,0,"Bunny","1","Left","BunnyDog","similar"
"419","101",2940,1,"7","Male","Caucasian",NA,"","e","e",2.52,30.21,4,0,"Cat","1","Right","MouseCat","similar"
"420","102",5421,0,"7","Male ","Caucasian/ Asian-American",NA,"e","g","e",2.38,28.57,5,0,"Apple","1","Right","AppleStrawberry","similar"
"421","103",1856,1,"7","Female","Caucasian ",NA,"e","c","b",2.68,32.19,6,0,"Orange","1","Left","OrangeBall","similar"
"422","106",1227,0,"7","Female","Caucasian","","f","e","e",2.55,30.58,2,0,"Ball","1","Left","OrangeBall","similar"
"423","107",1156,0,"7","Male","African American, Caucasian, American Indian, Asian-American",NA,"d","g","c",2.6,31.17,3,0,"Pillow","1","Left","EggPillow","similar"
"424","108",2152,1,"7","Male","Caucasian",NA,"f","e","g",2.43,29.16,4,0,"Cat","1","Right","MouseCat","similar"
"425","109",1377,0,"7","Male","Caucasion, Asian-American","","f","e","g",2.39,28.67,1,0,"Strawberry","1","Left","AppleStrawberry","similar"
"426","110",10220,1,"7","Male","Caucasian","","f","e","e",2.44,29.29,6,0,"Orange","1","Left","OrangeBall","similar"
"427","111",1988,1,"7","Female","Caucasian","","f","e","e",2.64,31.69,7,0,"Egg","1","Left","EggPillow","similar"
"428","112",3744,0,"7","Male","Caucasian","","f","e","e",2.65,31.86,8,0,"Mouse","1","Right","MouseCat","similar"
"429","113",2822,0,"7","Male","Caucasiasian-American","","f","e","b",2.55,30.54,1,0,"Strawberry","1","Left","AppleStrawberry","similar"
"430","114",6199,1,"7","Male","Non-Hispanic","Caucasian","d","d","d",2.33,27.95,2,0,"Ball","1","Right","OrangeBall","similar"
"431","116",1656,0,"7","Female","Asian-Russian","","d","e","d",2.49,29.85,4,0,"Cat","1","Left","MouseCat","similar"
"432","117",1244,1,"7","Male","Non-Hispanic","Caucasian","e","e","g",2.59,31.04,5,0,"Apple","1","Left","AppleStrawberry","similar"
"433","118",1232,1,"7","Male","Non-Hispanic","Caucasian","f","e","g",2.28,27.39,6,0,"Orange","1","Left","OrangeBall","similar"
"434","121",1399,0,"7","Female","African American, Caucasian, American Indian, Asian-American","Caucasian","a","c","",2.7,32.45,1,0,"Strawberry","1","Left","AppleStrawberry","similar"
"435","123",2080,1,"7","Male","Caucasian","","f","g","g",2.64,31.73,3,0,"Pillow","1","Right","EggPillow","similar"
"436","34",11342,0,"7","Female","Hispanic","Caucasian","d","e","e",2.35,28.21,2,0,"Ball","1","Left","OrangeBall","similar"
"437","35",3079,1,"7","Male","Non-Hispanic","Asian & Caucasian","f","e","e",2.27,27.25,3,0,"Pillow","1","Right","EggPillow","similar"
"438","36",4200,1,"7","Female","Non-Hispanic","Caucasian","f","d","g",2.24,26.83,4,0,"Cat","1","Right","MouseCat","similar"
"439","37",848,0,"7","Female","Non-Hispanic","Caucasian","f","e","e",2.2,26.4,5,0,"Apple","1","Right","AppleStrawberry","similar"
"440","38",1786,0,"7","Female","Non-Hispanic","Asian & Caucasian","f","d","e",2.21,26.5,6,0,"Orange","1","Right","OrangeBall","similar"
"441","40",7403,0,"7","Male","Hispanic","Caucasian","e","g","g",2.33,27.95,8,0,"Mouse","1","Right","MouseCat","similar"
"442","41",7584,0,"7","Female","Hispanic","","f","d","d",2.23,26.79,1,0,"Strawberry","1","Left","AppleStrawberry","similar"
"443","43",4750,0,"7","Female","Not Hispanic","Caucasian","f","g","e",2.33,27.95,3,0,"Pillow","1","Left","EggPillow","similar"
"444","44",4219,1,"7","Male","Not Hispanic","Caucasian","b","d","b",2.27,27.19,4,0,"Cat","1","Right","MouseCat","similar"
"445","45",3714,1,"7","Female","Not Hispanic","Caucasian","","d","g",2.39,28.73,5,0,"Apple","1","Left","AppleStrawberry","similar"
"446","46",6861,0,"7","Male","Not Hispanic","Caucasian","e","e","g",2.33,27.91,6,0,"Orange","1","Right","OrangeBall","similar"
"447","47",2454,0,"7","Male","Not Hispanic","Asian, Caucasian","f","g","g",2.46,29.52,7,0,"Egg","1","Right","EggPillow","similar"
"448","48",4715,0,"7","Female","Not Hispanic","Native Hawaiian & Caucasian","c","d","f",2.26,27.16,8,0,"Mouse","1","Right","MouseCat","similar"
"449","49",2558,1,"7","Female","Not Hispanic","Native Hawaiian & Caucasian","c","d","f",2.26,27.16,1,0,"Strawberry","1","Right","AppleStrawberry","similar"
"450","50",2732,1,"7","Female","Not Hispanic","Asian and Caucasian","d","e","g",2.22,26.7,2,0,"Ball","1","Right","OrangeBall","similar"
"451","51",2728,1,"7","Male","Not Hispanic","Caucasian","f","g","e",2.47,29.69,3,0,"Pillow","1","Right","EggPillow","similar"
"452","52",4295,0,"7","Female","Not Hispanic","Caucasian","e","e","c",2.2,26.37,4,0,"Cat","1","Left","MouseCat","similar"
"453","53",14638,0,"7","Male","Not Hispanic","Caucasian","e","c","e",2.3,27.55,5,0,"Apple","1","Right","AppleStrawberry","similar"
"454","54",3547,1,"7","Female","Hispanic","Caucasian","f","c","d",2.16,25.94,6,0,"Orange","1","Left","OrangeBall","similar"
"455","56",2033,1,"7","Female","Not Hispanic","Caucasian","f","g","e",2.45,29.39,8,0,"Mouse","1","Left","MouseCat","similar"
"456","59",2261,1,"7","Male","Not Hispanic","Caucasian","d","d","e",2.27,27.19,3,0,"Pillow","1","Right","EggPillow","similar"
"457","60",3613,0,"7","Female","Not Hispanic","Caucasian","c","e","c",2.31,27.68,4,0,"Cat","1","Left","MouseCat","similar"
"458","62",3782,1,"7","Female","1/8 Hispanic","Caucasian","d","e","b",2.34,28.04,6,0,"Orange","1","Left","OrangeBall","similar"
"459","63",3955,1,"7","Male","Hispanic","","e","c","c",2.36,28.34,7,0,"Egg","1","Left","EggPillow","similar"
"460","64",4191,0,"7","","Not Hispanic","Caucasian","c","c","d",2.41,28.96,8,0,"Mouse","1","Right","MouseCat","similar"
"461","65",3678,1,"7","Male","","Caucasian","f","e","e",2.48,29.72,1,0,"Strawberry","1","Right","AppleStrawberry","similar"
"462","66",1881,1,"7","Female","Not Hispanic","Asian/Caucasian","f","g","f",2.41,28.96,2,0,"Ball","1","Right","OrangeBall","similar"
"463","67",2561,1,"7","Female","Not Hispanic","Caucasian","e","e","e",2.33,28.01,3,0,"Pillow","1","Right","EggPillow","similar"
"464","68",2695,0,"7","Male","Not Hispanic","Caucasian","e","c","d",2.32,27.88,4,0,"Cat","1","Left","MouseCat","similar"
"465","69",5778,0,"7","Male","Not Hispanic","Caucasian","f","g","g",2.36,28.37,5,0,"Apple","1","Right","AppleStrawberry","similar"
"466","71",2616,1,"7","Female","Not Hispanic","Caucasian","e","d","b",2.56,30.71,7,0,"Egg","1","Left","EggPillow","similar"
"467","73",3077,0,"7","Male","Not Hispanic","Caucasian","e","e","e",2.27,27.19,1,0,"Strawberry","1","Left","AppleStrawberry","similar"
"468","74",4579,0,"7","Male","Not Hispanic","Caucasian","f","d","h",2.52,30.21,2,0,"Ball","1","Left","OrangeBall","similar"
"469","75",2356,1,"7","Female","Not Hispanic","Caucasian","f","e","b",2.56,30.71,3,0,"Pillow","1","Right","EggPillow","similar"
"470","76",2796,1,"7","Female","Not Hispanic","Caucasian","d","d","d",2.22,26.7,4,0,"Cat","1","Right","MouseCat","similar"
"471","77",4490,1,"7","Female","Not Hispanic","African American/Caucasian","e","d","d",2.49,29.85,5,0,"Apple","1","Left","AppleStrawberry","similar"
"472","78",4046,1,"7","Female","Not Hispanic","Caucasian","f","c","d",2.43,29.16,6,0,"Orange","1","Left","OrangeBall","similar"
"473","79",5695,1,"7","Male","Hispanic","Caucasian","f","e","e",2.49,29.85,7,0,"Egg","1","Left","EggPillow","similar"
"474","80",5192,0,"7","Male","Not Hispanic","Caucasian","f","e","e",2.14,25.68,8,0,"Mouse","1","Right","MouseCat","similar"
"475","81",5938,1,"7","Male ","Hispanic","Caucasian","d","c","d",2.36,28.27,1,0,"Strawberry","1","Right","AppleStrawberry","similar"
"476","83",2099,1,"7","Male ","Not hipanic ","Caucasian ","d","g","g",2.41,28.9,3,0,"Pillow","1","Right","EggPillow","similar"
"477","84",1570,0,"7","Male ","Hispanic","Caucasian","d","g","c",2.41,28.9,4,0,"Cat","1","Left","MouseCat","similar"
"478","86",2187,0,"7","Female","Not Hispanic","Caucasian","f","g","d",2.21,26.53,6,0,"Orange","1","Right","OrangeBall","similar"
"479","87",2281,1,"7","Male","Hispanic ","Caucasian","e","g","e",2.34,28.11,7,0,"Egg","1","Left","EggPillow","similar"
"480","88",2871,1,"7","Male ","Not Hispanic ","Native Hawaiian & Caucasian","c","c","g",2.25,26.99,8,0,"Mouse","1","Left","MouseCat","similar"
"481","89",3645,0,"7","Female","Not Hispanic","Caucasian ","d","b","b",2.21,26.47,1,0,"Strawberry","1","Left","AppleStrawberry","similar"
"482","90",2391,1,"7","Male","Hispanic","Caucasian","d","g","e",2.52,30.18,2,0,"Ball","1","Right","OrangeBall","similar"
"483","91",2212,1,"7","Male","Not Hispanic","African American","f","g","c",2.46,29.49,3,0,"Pillow","1","Right","EggPillow","similar"
"484","93",9381,0,"7","Female","Not Hispanic","Asian","","","",2.68,32.15,5,0,"Apple","1","Right","AppleStrawberry","similar"
"485","95",7597,1,"7","Female","Not Hispanic ","Caucasian","e","e","g",2.85,34.16,6,0,"Orange","1","Left","OrangeBall","similar"
"486","97",4637,1,"7"," Female","Not Hispanic ","Caucasian","d","c","c",2.34,28.11,8,0,"Mouse","1","Left","MouseCat","similar"
"487","98",2575,0,"7","Male","Hispanic","American Indian or Alaskan / Caucasian","e","g","d",2.64,31.73,1,0,"Strawberry","1","Left","AppleStrawberry","similar"
"488","101",11424,0,"8","Male","Caucasian",NA,"","e","e",2.52,30.21,4,0,"Duck","1","Left","PigDuck","similar"
"489","102",8068,0,"8","Male ","Caucasian/ Asian-American",NA,"e","g","e",2.38,28.57,5,0,"Ice_Cream","1","Right","Ice creamBroccoli","similar"
"490","103",2068,1,"8","Female","Caucasian ",NA,"e","c","b",2.68,32.19,6,0,"Spoon","1","Left","SpoonFork","similar"
"491","106",3479,1,"8","Female","Caucasian","","f","e","e",2.55,30.58,2,0,"Fork","1","Right","SpoonFork","similar"
"492","108",2038,1,"8","Male","Caucasian",NA,"f","e","g",2.43,29.16,4,0,"Duck","1","Right","PigDuck","similar"
"493","109",1684,0,"8","Male","Caucasion, Asian-American","","f","e","g",2.39,28.67,1,0,"Broccoli","1","Left","Ice creamBroccoli","similar"
"494","110",2063,1,"8","Male","Caucasian","","f","e","e",2.44,29.29,6,0,"Spoon","1","Left","SpoonFork","similar"
"495","111",1919,0,"8","Female","Caucasian","","f","e","e",2.64,31.69,7,0,"Teddy_Bear","1","Right","Teddy BearDoll","similar"
"496","112",1751,1,"8","Male","Caucasian","","f","e","e",2.65,31.86,8,0,"Pig","1","Left","PigDuck","similar"
"497","113",2856,0,"8","Male","Caucasiasian-American","","f","e","b",2.55,30.54,1,0,"Broccoli","1","Left","Ice creamBroccoli","similar"
"498","114",3996,1,"8","Male","Non-Hispanic","Caucasian","d","d","d",2.33,27.95,2,0,"Fork","1","Right","SpoonFork","similar"
"499","116",1610,1,"8","Female","Asian-Russian","","d","e","d",2.49,29.85,4,0,"Duck","1","Right","PigDuck","similar"
"500","117",1666,1,"8","Male","Non-Hispanic","Caucasian","e","e","g",2.59,31.04,5,0,"Ice_Cream","1","Left","Ice creamBroccoli","similar"
"501","118",1389,1,"8","Male","Non-Hispanic","Caucasian","f","e","g",2.28,27.39,6,0,"Spoon","1","Left","SpoonFork","similar"
"502","121",1444,0,"8","Female","African American, Caucasian, American Indian, Asian-American","Caucasian","a","c","",2.7,32.45,1,0,"Broccoli","1","Left","Ice creamBroccoli","similar"
"503","123",5490,0,"8","Male","Caucasian","","f","g","g",2.64,31.73,3,0,"Doll","1","Left","Teddy BearDoll","similar"
"504","34",1887,1,"8","Female","Hispanic","Caucasian","d","e","e",2.35,28.21,2,0,"Fork","1","Right","SpoonFork","similar"
"505","35",3704,1,"8","Male","Non-Hispanic","Asian & Caucasian","f","e","e",2.27,27.25,3,0,"Doll","1","Right","Teddy BearDoll","similar"
"506","36",7293,1,"8","Female","Non-Hispanic","Caucasian","f","d","g",2.24,26.83,4,0,"Duck","1","Right","PigDuck","similar"
"507","37",2134,1,"8","Female","Non-Hispanic","Caucasian","f","e","e",2.2,26.4,5,0,"Ice_Cream","1","Left","Ice creamBroccoli","similar"
"508","38",2751,1,"8","Female","Non-Hispanic","Asian & Caucasian","f","d","e",2.21,26.5,6,0,"Spoon","1","Left","SpoonFork","similar"
"509","39",1819,1,"8","Male","Non-Hispanic","Caucasian","c","b","b",2.19,26.24,7,0,"Teddy_Bear","1","Left","Teddy BearDoll","similar"
"510","40",3418,1,"8","Male","Hispanic","Caucasian","e","g","g",2.33,27.95,8,0,"Pig","1","Left","PigDuck","similar"
"511","41",3212,0,"8","Female","Hispanic","","f","d","d",2.23,26.79,1,0,"Broccoli","1","Left","Ice creamBroccoli","similar"
"512","43",5287,1,"8","Female","Not Hispanic","Caucasian","f","g","e",2.33,27.95,3,0,"Doll","1","Right","Teddy BearDoll","similar"
"513","44",4061,1,"8","Male","Not Hispanic","Caucasian","b","d","b",2.27,27.19,4,0,"Duck","1","Right","PigDuck","similar"
"514","45",6015,1,"8","Female","Not Hispanic","Caucasian","","d","g",2.39,28.73,5,0,"Ice_Cream","1","Left","Ice creamBroccoli","similar"
"515","46",2516,1,"8","Male","Not Hispanic","Caucasian","e","e","g",2.33,27.91,6,0,"Spoon","1","Left","SpoonFork","similar"
"516","47",2172,0,"8","Male","Not Hispanic","Asian, Caucasian","f","g","g",2.46,29.52,7,0,"Teddy_Bear","1","Right","Teddy BearDoll","similar"
"517","48",5454,1,"8","Female","Not Hispanic","Native Hawaiian & Caucasian","c","d","f",2.26,27.16,8,0,"Pig","1","Left","PigDuck","similar"
"518","49",2836,1,"8","Female","Not Hispanic","Native Hawaiian & Caucasian","c","d","f",2.26,27.16,1,0,"Broccoli","1","Right","Ice creamBroccoli","similar"
"519","50",4302,0,"8","Female","Not Hispanic","Asian and Caucasian","d","e","g",2.22,26.7,2,0,"Fork","1","Left","SpoonFork","similar"
"520","51",4827,1,"8","Male","Not Hispanic","Caucasian","f","g","e",2.47,29.69,3,0,"Doll","1","Right","Teddy BearDoll","similar"
"521","52",10920,1,"8","Female","Not Hispanic","Caucasian","e","e","c",2.2,26.37,4,0,"Duck","1","Right","PigDuck","similar"
"522","53",5516,1,"8","Male","Not Hispanic","Caucasian","e","c","e",2.3,27.55,5,0,"Ice_Cream","1","Left","Ice creamBroccoli","similar"
"523","54",3144,1,"8","Female","Hispanic","Caucasian","f","c","d",2.16,25.94,6,0,"Spoon","1","Left","SpoonFork","similar"
"524","56",3958,1,"8","Female","Not Hispanic","Caucasian","f","g","e",2.45,29.39,8,0,"Pig","1","Left","PigDuck","similar"
"525","58",848,0,"8","Female","Not Hispanic","African American/Caucasian","f","g","c",2.33,27.95,2,0,"Fork","1","Left","SpoonFork","similar"
"526","62",2587,1,"8","Female","1/8 Hispanic","Caucasian","d","e","b",2.34,28.04,6,0,"Spoon","1","Left","SpoonFork","similar"
"527","63",2162,0,"8","Male","Hispanic","","e","c","c",2.36,28.34,7,0,"Teddy_Bear","1","Right","Teddy BearDoll","similar"
"528","64",3044,0,"8","","Not Hispanic","Caucasian","c","c","d",2.41,28.96,8,0,"Pig","1","Right","PigDuck","similar"
"529","65",3653,1,"8","Male","","Caucasian","f","e","e",2.48,29.72,1,0,"Broccoli","1","Right","Ice creamBroccoli","similar"
"530","66",1887,1,"8","Female","Not Hispanic","Asian/Caucasian","f","g","f",2.41,28.96,2,0,"Fork","1","Right","SpoonFork","similar"
"531","67",3919,1,"8","Female","Not Hispanic","Caucasian","e","e","e",2.33,28.01,3,0,"Doll","1","Right","Teddy BearDoll","similar"
"532","68",3366,1,"8","Male","Not Hispanic","Caucasian","e","c","d",2.32,27.88,4,0,"Duck","1","Right","PigDuck","similar"
"533","69",2980,1,"8","Male","Not Hispanic","Caucasian","f","g","g",2.36,28.37,5,0,"Ice_Cream","1","Left","Ice creamBroccoli","similar"
"534","70",1805,0,"8","Male","Hispanic","","b","b","b",2.55,30.61,6,0,"Spoon","1","Right","SpoonFork","similar"
"535","71",2846,0,"8","Female","Not Hispanic","Caucasian","e","d","b",2.56,30.71,7,0,"Teddy_Bear","1","Right","Teddy BearDoll","similar"
"536","73",2767,1,"8","Male","Not Hispanic","Caucasian","e","e","e",2.27,27.19,1,0,"Broccoli","1","Right","Ice creamBroccoli","similar"
"537","75",3125,1,"8","Female","Not Hispanic","Caucasian","f","e","b",2.56,30.71,3,0,"Doll","1","Right","Teddy BearDoll","similar"
"538","76",7132,0,"8","Female","Not Hispanic","Caucasian","d","d","d",2.22,26.7,4,0,"Duck","1","Left","PigDuck","similar"
"539","77",18650,0,"8","Female","Not Hispanic","African American/Caucasian","e","d","d",2.49,29.85,5,0,"Ice_Cream","1","Right","Ice creamBroccoli","similar"
"540","78",2701,1,"8","Female","Not Hispanic","Caucasian","f","c","d",2.43,29.16,6,0,"Spoon","1","Left","SpoonFork","similar"
"541","79",3138,0,"8","Male","Hispanic","Caucasian","f","e","e",2.49,29.85,7,0,"Teddy_Bear","1","Right","Teddy BearDoll","similar"
"542","80",4831,0,"8","Male","Not Hispanic","Caucasian","f","e","e",2.14,25.68,8,0,"Pig","1","Right","PigDuck","similar"
"543","81",3917,1,"8","Male ","Hispanic","Caucasian","d","c","d",2.36,28.27,1,0,"Broccoli","1","Right","Ice creamBroccoli","similar"
"544","83",4867,0,"8","Male ","Not hipanic ","Caucasian ","d","g","g",2.41,28.9,3,0,"Doll","1","Left","Teddy BearDoll","similar"
"545","84",1513,0,"8","Male ","Hispanic","Caucasian","d","g","c",2.41,28.9,4,0,"Duck","1","Left","PigDuck","similar"
"546","86",2352,1,"8","Female","Not Hispanic","Caucasian","f","g","d",2.21,26.53,6,0,"Spoon","1","Left","SpoonFork","similar"
"547","87",2017,1,"8","Male","Hispanic ","Caucasian","e","g","e",2.34,28.11,7,0,"Teddy_Bear","1","Left","Teddy BearDoll","similar"
"548","88",3229,1,"8","Male ","Not Hispanic ","Native Hawaiian & Caucasian","c","c","g",2.25,26.99,8,0,"Pig","1","Left","PigDuck","similar"
"549","89",4539,0,"8","Female","Not Hispanic","Caucasian ","d","b","b",2.21,26.47,1,0,"Broccoli","1","Left","Ice creamBroccoli","similar"
"550","90",2872,1,"8","Male","Hispanic","Caucasian","d","g","e",2.52,30.18,2,0,"Fork","1","Right","SpoonFork","similar"
"551","93",2958,1,"8","Female","Not Hispanic","Asian","","","",2.68,32.15,5,0,"Ice_Cream","1","Left","Ice creamBroccoli","similar"
"552","95",1948,1,"8","Female","Not Hispanic ","Caucasian","e","e","g",2.85,34.16,6,0,"Spoon","1","Left","SpoonFork","similar"
"553","97",3036,1,"8"," Female","Not Hispanic ","Caucasian","d","c","c",2.34,28.11,8,0,"Pig","1","Left","PigDuck","similar"
"554","98",3929,1,"8","Male","Hispanic","American Indian or Alaskan / Caucasian","e","g","d",2.64,31.73,1,0,"Broccoli","1","Right","Ice creamBroccoli","similar"
"555","101",11611,1,"9","Male","Caucasian",NA,"","e","e",2.52,30.21,4,0,"TV","1","Left","TVFork","dissimilar"
"556","102",2946,1,"9","Male ","Caucasian/ Asian-American",NA,"e","g","e",2.38,28.57,5,0,"Crayon","1","Right","Teddy Bearcrayon","dissimilar"
"557","103",1295,1,"9","Female","Caucasian ",NA,"e","c","b",2.68,32.19,6,0,"Refrigerator","1","Right","MouseRefrigerator ","dissimilar"
"558","106",2553,1,"9","Female","Caucasian","","f","e","e",2.55,30.58,2,0,"Mouse","1","Left","MouseRefrigerator ","dissimilar"
"559","107",1918,1,"9","Male","African American, Caucasian, American Indian, Asian-American",NA,"d","g","c",2.6,31.17,3,0,"Bunny","1","Left","BunnyStrawberry","dissimilar"
"560","108",2310,1,"9","Male","Caucasian",NA,"f","e","g",2.43,29.16,4,0,"TV","1","Left","TVFork","dissimilar"
"561","109",1226,1,"9","Male","Caucasion, Asian-American","","f","e","g",2.39,28.67,1,0,"Teddy_Bear","1","Left","Teddy Bearcrayon","dissimilar"
"562","110",2386,1,"9","Male","Caucasian","","f","e","e",2.44,29.29,6,0,"Refrigerator","1","Right","MouseRefrigerator ","dissimilar"
"563","111",3135,1,"9","Female","Caucasian","","f","e","e",2.64,31.69,7,0,"Strawberry","1","Right","BunnyStrawberry","dissimilar"
"564","112",1487,1,"9","Male","Caucasian","","f","e","e",2.65,31.86,8,0,"Fork","1","Right","TVFork","dissimilar"
"565","113",2678,1,"9","Male","Caucasiasian-American","","f","e","b",2.55,30.54,1,0,"Teddy_Bear","1","Left","Teddy Bearcrayon","dissimilar"
"566","114",4466,1,"9","Male","Non-Hispanic","Caucasian","d","d","d",2.33,27.95,2,0,"Mouse","1","Left","MouseRefrigerator ","dissimilar"
"567","116",1499,1,"9","Female","Asian-Russian","","d","e","d",2.49,29.85,4,0,"TV","1","Left","TVFork","dissimilar"
"568","117",2264,1,"9","Male","Non-Hispanic","Caucasian","e","e","g",2.59,31.04,5,0,"Crayon","1","Right","Teddy Bearcrayon","dissimilar"
"569","118",1433,0,"9","Male","Non-Hispanic","Caucasian","f","e","g",2.28,27.39,6,0,"Refrigerator","1","Left","MouseRefrigerator ","dissimilar"
"570","121",1438,1,"9","Female","African American, Caucasian, American Indian, Asian-American","Caucasian","a","c","",2.7,32.45,1,0,"Teddy_Bear","1","Left","Teddy Bearcrayon","dissimilar"
"571","123",2458,0,"9","Male","Caucasian","","f","g","g",2.64,31.73,3,0,"Bunny","1","Right","BunnyStrawberry","dissimilar"
"572","35",1871,0,"9","Male","Non-Hispanic","Asian & Caucasian","f","e","e",2.27,27.25,3,0,"Bunny","1","Right","BunnyStrawberry","dissimilar"
"573","36",5055,1,"9","Female","Non-Hispanic","Caucasian","f","d","g",2.24,26.83,4,0,"TV","1","Left","TVFork","dissimilar"
"574","37",2611,1,"9","Female","Non-Hispanic","Caucasian","f","e","e",2.2,26.4,5,0,"Crayon","1","Right","Teddy Bearcrayon","dissimilar"
"575","38",4029,1,"9","Female","Non-Hispanic","Asian & Caucasian","f","d","e",2.21,26.5,6,0,"Refrigerator","1","Right","MouseRefrigerator ","dissimilar"
"576","39",16228,1,"9","Male","Non-Hispanic","Caucasian","c","b","b",2.19,26.24,7,0,"Strawberry","1","Right","BunnyStrawberry","dissimilar"
"577","40",3304,1,"9","Male","Hispanic","Caucasian","e","g","g",2.33,27.95,8,0,"Fork","1","Right","TVFork","dissimilar"
"578","41",2897,1,"9","Female","Hispanic","","f","d","d",2.23,26.79,1,0,"Teddy_Bear","1","Left","Teddy Bearcrayon","dissimilar"
"579","43",4386,1,"9","Female","Not Hispanic","Caucasian","f","g","e",2.33,27.95,3,0,"Bunny","1","Left","BunnyStrawberry","dissimilar"
"580","44",5188,1,"9","Male","Not Hispanic","Caucasian","b","d","b",2.27,27.19,4,0,"TV","1","Left","TVFork","dissimilar"
"581","45",3640,1,"9","Female","Not Hispanic","Caucasian","","d","g",2.39,28.73,5,0,"Crayon","1","Right","Teddy Bearcrayon","dissimilar"
"582","46",5627,1,"9","Male","Not Hispanic","Caucasian","e","e","g",2.33,27.91,6,0,"Refrigerator","1","Right","MouseRefrigerator ","dissimilar"
"583","47",2830,1,"9","Male","Not Hispanic","Asian, Caucasian","f","g","g",2.46,29.52,7,0,"Strawberry","1","Right","BunnyStrawberry","dissimilar"
"584","48",1941,1,"9","Female","Not Hispanic","Native Hawaiian & Caucasian","c","d","f",2.26,27.16,8,0,"Fork","1","Right","TVFork","dissimilar"
"585","49",3081,1,"9","Female","Not Hispanic","Native Hawaiian & Caucasian","c","d","f",2.26,27.16,1,0,"Teddy_Bear","1","Left","Teddy Bearcrayon","dissimilar"
"586","50",2872,1,"9","Female","Not Hispanic","Asian and Caucasian","d","e","g",2.22,26.7,2,0,"Mouse","1","Left","MouseRefrigerator ","dissimilar"
"587","51",3971,0,"9","Male","Not Hispanic","Caucasian","f","g","e",2.47,29.69,3,0,"Bunny","1","Right","BunnyStrawberry","dissimilar"
"588","52",3036,1,"9","Female","Not Hispanic","Caucasian","e","e","c",2.2,26.37,4,0,"TV","1","Left","TVFork","dissimilar"
"589","53",5070,1,"9","Male","Not Hispanic","Caucasian","e","c","e",2.3,27.55,5,0,"Crayon","1","Right","Teddy Bearcrayon","dissimilar"
"590","54",5093,1,"9","Female","Hispanic","Caucasian","f","c","d",2.16,25.94,6,0,"Refrigerator","1","Right","MouseRefrigerator ","dissimilar"
"591","56",1865,1,"9","Female","Not Hispanic","Caucasian","f","g","e",2.45,29.39,8,0,"Fork","1","Right","TVFork","dissimilar"
"592","57",2365,1,"9","Female","Not Hispanic","African American/Caucasian","f","g","c",2.33,27.95,1,0,"Teddy_Bear","1","Left","Teddy Bearcrayon","dissimilar"
"593","58",12998,1,"9","Female","Not Hispanic","African American/Caucasian","f","g","c",2.33,27.95,2,0,"Mouse","1","Left","MouseRefrigerator ","dissimilar"
"594","59",1644,0,"9","Male","Not Hispanic","Caucasian","d","d","e",2.27,27.19,3,0,"Bunny","1","Right","BunnyStrawberry","dissimilar"
"595","60",1511,0,"9","Female","Not Hispanic","Caucasian","c","e","c",2.31,27.68,4,0,"TV","1","Right","TVFork","dissimilar"
"596","62",4007,1,"9","Female","1/8 Hispanic","Caucasian","d","e","b",2.34,28.04,6,0,"Refrigerator","1","Right","MouseRefrigerator ","dissimilar"
"597","63",5420,1,"9","Male","Hispanic","","e","c","c",2.36,28.34,7,0,"Strawberry","1","Right","BunnyStrawberry","dissimilar"
"598","64",6445,1,"9","","Not Hispanic","Caucasian","c","c","d",2.41,28.96,8,0,"Fork","1","Right","TVFork","dissimilar"
"599","65",3567,1,"9","Male","","Caucasian","f","e","e",2.48,29.72,1,0,"Teddy_Bear","1","Left","Teddy Bearcrayon","dissimilar"
"600","66",2395,1,"9","Female","Not Hispanic","Asian/Caucasian","f","g","f",2.41,28.96,2,0,"Mouse","1","Left","MouseRefrigerator ","dissimilar"
"601","67",2072,0,"9","Female","Not Hispanic","Caucasian","e","e","e",2.33,28.01,3,0,"Bunny","1","Right","BunnyStrawberry","dissimilar"
"602","68",3410,1,"9","Male","Not Hispanic","Caucasian","e","c","d",2.32,27.88,4,0,"TV","1","Left","TVFork","dissimilar"
"603","69",2530,1,"9","Male","Not Hispanic","Caucasian","f","g","g",2.36,28.37,5,0,"Crayon","1","Right","Teddy Bearcrayon","dissimilar"
"604","71",2863,1,"9","Female","Not Hispanic","Caucasian","e","d","b",2.56,30.71,7,0,"Strawberry","1","Right","BunnyStrawberry","dissimilar"
"605","74",4042,1,"9","Male","Not Hispanic","Caucasian","f","d","h",2.52,30.21,2,0,"Mouse","1","Left","MouseRefrigerator ","dissimilar"
"606","75",2388,0,"9","Female","Not Hispanic","Caucasian","f","e","b",2.56,30.71,3,0,"Bunny","1","Right","BunnyStrawberry","dissimilar"
"607","76",7745,1,"9","Female","Not Hispanic","Caucasian","d","d","d",2.22,26.7,4,0,"TV","1","Left","TVFork","dissimilar"
"608","77",10920,1,"9","Female","Not Hispanic","African American/Caucasian","e","d","d",2.49,29.85,5,0,"Crayon","1","Right","Teddy Bearcrayon","dissimilar"
"609","78",1860,1,"9","Female","Not Hispanic","Caucasian","f","c","d",2.43,29.16,6,0,"Refrigerator","1","Right","MouseRefrigerator ","dissimilar"
"610","79",7222,1,"9","Male","Hispanic","Caucasian","f","e","e",2.49,29.85,7,0,"Strawberry","1","Right","BunnyStrawberry","dissimilar"
"611","81",5491,1,"9","Male ","Hispanic","Caucasian","d","c","d",2.36,28.27,1,0,"Teddy_Bear","1","Left","Teddy Bearcrayon","dissimilar"
"612","83",2713,0,"9","Male ","Not hipanic ","Caucasian ","d","g","g",2.41,28.9,3,0,"Bunny","1","Right","BunnyStrawberry","dissimilar"
"613","84",1803,1,"9","Male ","Hispanic","Caucasian","d","g","c",2.41,28.9,4,0,"TV","1","Left","TVFork","dissimilar"
"614","86",2055,0,"9","Female","Not Hispanic","Caucasian","f","g","d",2.21,26.53,6,0,"Refrigerator","1","Left","MouseRefrigerator ","dissimilar"
"615","87",5588,1,"9","Male","Hispanic ","Caucasian","e","g","e",2.34,28.11,7,0,"Strawberry","1","Right","BunnyStrawberry","dissimilar"
"616","89",8858,0,"9","Female","Not Hispanic","Caucasian ","d","b","b",2.21,26.47,1,0,"Teddy_Bear","1","Right","Teddy Bearcrayon","dissimilar"
"617","90",1950,1,"9","Male","Hispanic","Caucasian","d","g","e",2.52,30.18,2,0,"Mouse","1","Left","MouseRefrigerator ","dissimilar"
"618","91",2649,0,"9","Male","Not Hispanic","African American","f","g","c",2.46,29.49,3,0,"Bunny","1","Right","BunnyStrawberry","dissimilar"
"619","93",3214,1,"9","Female","Not Hispanic","Asian","","","",2.68,32.15,5,0,"Crayon","1","Right","Teddy Bearcrayon","dissimilar"
"620","95",2094,1,"9","Female","Not Hispanic ","Caucasian","e","e","g",2.85,34.16,6,0,"Refrigerator","1","Right","MouseRefrigerator ","dissimilar"
"621","97",3105,1,"9"," Female","Not Hispanic ","Caucasian","d","c","c",2.34,28.11,8,0,"Fork","1","Right","TVFork","dissimilar"
"622","102",2629,1,"10","Male ","Caucasian/ Asian-American",NA,"e","g","e",2.38,28.57,5,0,"Jacket","1","Left","JacketPillow","dissimilar"
"623","103",838,1,"10","Female","Caucasian ",NA,"e","c","b",2.68,32.19,6,0,"Chair","1","Left","ChairGrapes","dissimilar"
"624","106",1354,1,"10","Female","Caucasian","","f","e","e",2.55,30.58,2,0,"Grapes","1","Right","ChairGrapes","dissimilar"
"625","107",1215,1,"10","Male","African American, Caucasian, American Indian, Asian-American",NA,"d","g","c",2.6,31.17,3,0,"Bicycle","1","Right","Ice creamBicycle","dissimilar"
"626","108",2903,1,"10","Male","Caucasian",NA,"f","e","g",2.43,29.16,4,0,"Pizza","1","Right","ShoePizza","dissimilar"
"627","109",1103,1,"10","Male","Caucasion, Asian-American","","f","e","g",2.39,28.67,1,0,"Pillow","1","Right","JacketPillow","dissimilar"
"628","110",2018,1,"10","Male","Caucasian","","f","e","e",2.44,29.29,6,0,"Chair","1","Left","ChairGrapes","dissimilar"
"629","111",1968,1,"10","Female","Caucasian","","f","e","e",2.64,31.69,7,0,"Ice_Cream","1","Left","Ice creamBicycle","dissimilar"
"630","112",2230,1,"10","Male","Caucasian","","f","e","e",2.65,31.86,8,0,"Shoe","1","Left","ShoePizza","dissimilar"
"631","113",2217,1,"10","Male","Caucasiasian-American","","f","e","b",2.55,30.54,1,0,"Pillow","1","Right","JacketPillow","dissimilar"
"632","114",4834,1,"10","Male","Non-Hispanic","Caucasian","d","d","d",2.33,27.95,2,0,"Grapes","1","Right","ChairGrapes","dissimilar"
"633","116",1547,1,"10","Female","Asian-Russian","","d","e","d",2.49,29.85,4,0,"Pizza","1","Right","ShoePizza","dissimilar"
"634","117",1848,1,"10","Male","Non-Hispanic","Caucasian","e","e","g",2.59,31.04,5,0,"Jacket","1","Left","JacketPillow","dissimilar"
"635","118",1738,0,"10","Male","Non-Hispanic","Caucasian","f","e","g",2.28,27.39,6,0,"Chair","1","Right","ChairGrapes","dissimilar"
"636","121",1310,1,"10","Female","African American, Caucasian, American Indian, Asian-American","Caucasian","a","c","",2.7,32.45,1,0,"Pillow","1","Right","JacketPillow","dissimilar"
"637","123",2255,1,"10","Male","Caucasian","","f","g","g",2.64,31.73,3,0,"Bicycle","1","Right","Ice creamBicycle","dissimilar"
"638","35",2589,1,"10","Male","Non-Hispanic","Asian & Caucasian","f","e","e",2.27,27.25,3,0,"Bicycle","1","Right","Ice creamBicycle","dissimilar"
"639","36",3368,1,"10","Female","Non-Hispanic","Caucasian","f","d","g",2.24,26.83,4,0,"Pizza","1","Right","ShoePizza","dissimilar"
"640","37",2269,1,"10","Female","Non-Hispanic","Caucasian","f","e","e",2.2,26.4,5,0,"Jacket","1","Left","JacketPillow","dissimilar"
"641","38",2578,1,"10","Female","Non-Hispanic","Asian & Caucasian","f","d","e",2.21,26.5,6,0,"Chair","1","Left","ChairGrapes","dissimilar"
"642","39",4477,1,"10","Male","Non-Hispanic","Caucasian","c","b","b",2.19,26.24,7,0,"Ice_Cream","1","Left","Ice creamBicycle","dissimilar"
"643","40",3743,1,"10","Male","Hispanic","Caucasian","e","g","g",2.33,27.95,8,0,"Shoe","1","Left","ShoePizza","dissimilar"
"644","41",3430,0,"10","Female","Hispanic","","f","d","d",2.23,26.79,1,0,"Pillow","1","Left","JacketPillow","dissimilar"
"645","43",2852,1,"10","Female","Not Hispanic","Caucasian","f","g","e",2.33,27.95,3,0,"Bicycle","1","Right","Ice creamBicycle","dissimilar"
"646","44",3561,1,"10","Male","Not Hispanic","Caucasian","b","d","b",2.27,27.19,4,0,"Pizza","1","Right","ShoePizza","dissimilar"
"647","45",5916,1,"10","Female","Not Hispanic","Caucasian","","d","g",2.39,28.73,5,0,"Jacket","1","Left","JacketPillow","dissimilar"
"648","46",4148,1,"10","Male","Not Hispanic","Caucasian","e","e","g",2.33,27.91,6,0,"Chair","1","Left","ChairGrapes","dissimilar"
"649","47",2844,1,"10","Male","Not Hispanic","Asian, Caucasian","f","g","g",2.46,29.52,7,0,"Ice_Cream","1","Left","Ice creamBicycle","dissimilar"
"650","48",2730,1,"10","Female","Not Hispanic","Native Hawaiian & Caucasian","c","d","f",2.26,27.16,8,0,"Shoe","1","Left","ShoePizza","dissimilar"
"651","49",2439,1,"10","Female","Not Hispanic","Native Hawaiian & Caucasian","c","d","f",2.26,27.16,1,0,"Pillow","1","Right","JacketPillow","dissimilar"
"652","50",6511,1,"10","Female","Not Hispanic","Asian and Caucasian","d","e","g",2.22,26.7,2,0,"Grapes","1","Right","ChairGrapes","dissimilar"
"653","51",2011,1,"10","Male","Not Hispanic","Caucasian","f","g","e",2.47,29.69,3,0,"Bicycle","1","Right","Ice creamBicycle","dissimilar"
"654","52",2778,1,"10","Female","Not Hispanic","Caucasian","e","e","c",2.2,26.37,4,0,"Pizza","1","Right","ShoePizza","dissimilar"
"655","53",4919,1,"10","Male","Not Hispanic","Caucasian","e","c","e",2.3,27.55,5,0,"Jacket","1","Left","JacketPillow","dissimilar"
"656","54",3210,1,"10","Female","Hispanic","Caucasian","f","c","d",2.16,25.94,6,0,"Chair","1","Left","ChairGrapes","dissimilar"
"657","56",3694,1,"10","Female","Not Hispanic","Caucasian","f","g","e",2.45,29.39,8,0,"Shoe","1","Left","ShoePizza","dissimilar"
"658","57",15204,0,"10","Female","Not Hispanic","African American/Caucasian","f","g","c",2.33,27.95,1,0,"Pillow","1","Left","JacketPillow","dissimilar"
"659","58",13371,1,"10","Female","Not Hispanic","African American/Caucasian","f","g","c",2.33,27.95,2,0,"Grapes","1","Right","ChairGrapes","dissimilar"
"660","59",2395,1,"10","Male","Not Hispanic","Caucasian","d","d","e",2.27,27.19,3,0,"Bicycle","1","Right","Ice creamBicycle","dissimilar"
"661","60",1441,0,"10","Female","Not Hispanic","Caucasian","c","e","c",2.31,27.68,4,0,"Pizza","1","Left","ShoePizza","dissimilar"
"662","62",4859,1,"10","Female","1/8 Hispanic","Caucasian","d","e","b",2.34,28.04,6,0,"Chair","1","Left","ChairGrapes","dissimilar"
"663","63",2394,1,"10","Male","Hispanic","","e","c","c",2.36,28.34,7,0,"Ice_Cream","1","Left","Ice creamBicycle","dissimilar"
"664","64",4599,1,"10","","Not Hispanic","Caucasian","c","c","d",2.41,28.96,8,0,"Shoe","1","Left","ShoePizza","dissimilar"
"665","65",6642,1,"10","Male","","Caucasian","f","e","e",2.48,29.72,1,0,"Pillow","1","Right","JacketPillow","dissimilar"
"666","66",1910,1,"10","Female","Not Hispanic","Asian/Caucasian","f","g","f",2.41,28.96,2,0,"Grapes","1","Right","ChairGrapes","dissimilar"
"667","67",2375,1,"10","Female","Not Hispanic","Caucasian","e","e","e",2.33,28.01,3,0,"Bicycle","1","Right","Ice creamBicycle","dissimilar"
"668","68",3599,1,"10","Male","Not Hispanic","Caucasian","e","c","d",2.32,27.88,4,0,"Pizza","1","Right","ShoePizza","dissimilar"
"669","69",3214,0,"10","Male","Not Hispanic","Caucasian","f","g","g",2.36,28.37,5,0,"Jacket","1","Right","JacketPillow","dissimilar"
"670","70",3786,1,"10","Male","Hispanic","","b","b","b",2.55,30.61,6,0,"Chair","1","Left","ChairGrapes","dissimilar"
"671","71",8698,1,"10","Female","Not Hispanic","Caucasian","e","d","b",2.56,30.71,7,0,"Ice_Cream","1","Left","Ice creamBicycle","dissimilar"
"672","73",1971,1,"10","Male","Not Hispanic","Caucasian","e","e","e",2.27,27.19,1,0,"Pillow","1","Right","JacketPillow","dissimilar"
"673","74",5026,1,"10","Male","Not Hispanic","Caucasian","f","d","h",2.52,30.21,2,0,"Grapes","1","Right","ChairGrapes","dissimilar"
"674","75",1702,1,"10","Female","Not Hispanic","Caucasian","f","e","b",2.56,30.71,3,0,"Bicycle","1","Right","Ice creamBicycle","dissimilar"
"675","76",3868,1,"10","Female","Not Hispanic","Caucasian","d","d","d",2.22,26.7,4,0,"Pizza","1","Right","ShoePizza","dissimilar"
"676","77",14064,0,"10","Female","Not Hispanic","African American/Caucasian","e","d","d",2.49,29.85,5,0,"Jacket","1","Right","JacketPillow","dissimilar"
"677","78",1815,1,"10","Female","Not Hispanic","Caucasian","f","c","d",2.43,29.16,6,0,"Chair","1","Left","ChairGrapes","dissimilar"
"678","79",5912,1,"10","Male","Hispanic","Caucasian","f","e","e",2.49,29.85,7,0,"Ice_Cream","1","Left","Ice creamBicycle","dissimilar"
"679","80",2637,0,"10","Male","Not Hispanic","Caucasian","f","e","e",2.14,25.68,8,0,"Shoe","1","Right","ShoePizza","dissimilar"
"680","81",7183,1,"10","Male ","Hispanic","Caucasian","d","c","d",2.36,28.27,1,0,"Pillow","1","Right","JacketPillow","dissimilar"
"681","83",2181,1,"10","Male ","Not hipanic ","Caucasian ","d","g","g",2.41,28.9,3,0,"Bicycle","1","Right","Ice creamBicycle","dissimilar"
"682","84",1392,1,"10","Male ","Hispanic","Caucasian","d","g","c",2.41,28.9,4,0,"Pizza","1","Right","ShoePizza","dissimilar"
"683","86",3661,1,"10","Female","Not Hispanic","Caucasian","f","g","d",2.21,26.53,6,0,"Chair","1","Left","ChairGrapes","dissimilar"
"684","87",1894,1,"10","Male","Hispanic ","Caucasian","e","g","e",2.34,28.11,7,0,"Ice_Cream","1","Left","Ice creamBicycle","dissimilar"
"685","88",20069,1,"10","Male ","Not Hispanic ","Native Hawaiian & Caucasian","c","c","g",2.25,26.99,8,0,"Shoe","1","Left","ShoePizza","dissimilar"
"686","89",2713,1,"10","Female","Not Hispanic","Caucasian ","d","b","b",2.21,26.47,1,0,"Pillow","1","Right","JacketPillow","dissimilar"
"687","90",2302,1,"10","Male","Hispanic","Caucasian","d","g","e",2.52,30.18,2,0,"Grapes","1","Right","ChairGrapes","dissimilar"
"688","91",7716,1,"10","Male","Not Hispanic","African American","f","g","c",2.46,29.49,3,0,"Bicycle","1","Right","Ice creamBicycle","dissimilar"
"689","93",2793,1,"10","Female","Not Hispanic","Asian","","","",2.68,32.15,5,0,"Jacket","1","Left","JacketPillow","dissimilar"
"690","95",1688,1,"10","Female","Not Hispanic ","Caucasian","e","e","g",2.85,34.16,6,0,"Chair","1","Left","ChairGrapes","dissimilar"
"691","97",3727,1,"10"," Female","Not Hispanic ","Caucasian","d","c","c",2.34,28.11,8,0,"Shoe","1","Left","ShoePizza","dissimilar"
"692","98",3650,1,"10","Male","Hispanic","American Indian or Alaskan / Caucasian","e","g","d",2.64,31.73,1,0,"Pillow","1","Right","JacketPillow","dissimilar"
"693","101",6058,1,"11","Male","Caucasian",NA,"","e","e",2.52,30.21,4,0,"Leaf","1","Right","BottleLeaf","dissimilar"
"694","102",2369,1,"11","Male ","Caucasian/ Asian-American",NA,"e","g","e",2.38,28.57,5,0,"Pig","1","Left","PigButterfly","dissimilar"
"695","103",1081,1,"11","Female","Caucasian ",NA,"e","c","b",2.68,32.19,6,0,"Clock","1","Left","ClockDog","dissimilar"
"696","107",1556,1,"11","Male","African American, Caucasian, American Indian, Asian-American",NA,"d","g","c",2.6,31.17,3,0,"Bread","1","Right","OrangeBread","dissimilar"
"697","108",2169,1,"11","Male","Caucasian",NA,"f","e","g",2.43,29.16,4,0,"Leaf","1","Right","BottleLeaf","dissimilar"
"698","109",1555,1,"11","Male","Caucasion, Asian-American","","f","e","g",2.39,28.67,1,0,"Butterfly","1","Right","PigButterfly","dissimilar"
"699","111",2414,1,"11","Female","Caucasian","","f","e","e",2.64,31.69,7,0,"Orange","1","Left","OrangeBread","dissimilar"
"700","112",1808,1,"11","Male","Caucasian","","f","e","e",2.65,31.86,8,0,"Bottle","1","Left","BottleLeaf","dissimilar"
"701","113",6586,1,"11","Male","Caucasiasian-American","","f","e","b",2.55,30.54,1,0,"Butterfly","1","Right","PigButterfly","dissimilar"
"702","114",8240,1,"11","Male","Non-Hispanic","Caucasian","d","d","d",2.33,27.95,2,0,"Dog","1","Right","ClockDog","dissimilar"
"703","116",1177,1,"11","Female","Asian-Russian","","d","e","d",2.49,29.85,4,0,"Leaf","1","Right","BottleLeaf","dissimilar"
"704","117",2249,1,"11","Male","Non-Hispanic","Caucasian","e","e","g",2.59,31.04,5,0,"Pig","1","Left","PigButterfly","dissimilar"
"705","118",1653,1,"11","Male","Non-Hispanic","Caucasian","f","e","g",2.28,27.39,6,0,"Clock","1","Left","ClockDog","dissimilar"
"706","121",975,1,"11","Female","African American, Caucasian, American Indian, Asian-American","Caucasian","a","c","",2.7,32.45,1,0,"Butterfly","1","Right","PigButterfly","dissimilar"
"707","123",1717,1,"11","Male","Caucasian","","f","g","g",2.64,31.73,3,0,"Bread","1","Right","OrangeBread","dissimilar"
"708","35",1877,1,"11","Male","Non-Hispanic","Asian & Caucasian","f","e","e",2.27,27.25,3,0,"Bread","1","Right","OrangeBread","dissimilar"
"709","36",3884,1,"11","Female","Non-Hispanic","Caucasian","f","d","g",2.24,26.83,4,0,"Leaf","1","Right","BottleLeaf","dissimilar"
"710","37",3550,1,"11","Female","Non-Hispanic","Caucasian","f","e","e",2.2,26.4,5,0,"Pig","1","Left","PigButterfly","dissimilar"
"711","38",4341,1,"11","Female","Non-Hispanic","Asian & Caucasian","f","d","e",2.21,26.5,6,0,"Clock","1","Left","ClockDog","dissimilar"
"712","39",4092,1,"11","Male","Non-Hispanic","Caucasian","c","b","b",2.19,26.24,7,0,"Orange","1","Left","OrangeBread","dissimilar"
"713","40",6684,0,"11","Male","Hispanic","Caucasian","e","g","g",2.33,27.95,8,0,"Bottle","1","Right","BottleLeaf","dissimilar"
"714","41",3445,1,"11","Female","Hispanic","","f","d","d",2.23,26.79,1,0,"Butterfly","1","Right","PigButterfly","dissimilar"
"715","43",2945,1,"11","Female","Not Hispanic","Caucasian","f","g","e",2.33,27.95,3,0,"Bread","1","Right","OrangeBread","dissimilar"
"716","44",5978,1,"11","Male","Not Hispanic","Caucasian","b","d","b",2.27,27.19,4,0,"Leaf","1","Right","BottleLeaf","dissimilar"
"717","45",3491,1,"11","Female","Not Hispanic","Caucasian","","d","g",2.39,28.73,5,0,"Pig","1","Left","PigButterfly","dissimilar"
"718","46",2976,1,"11","Male","Not Hispanic","Caucasian","e","e","g",2.33,27.91,6,0,"Clock","1","Left","ClockDog","dissimilar"
"719","47",2259,1,"11","Male","Not Hispanic","Asian, Caucasian","f","g","g",2.46,29.52,7,0,"Orange","1","Left","OrangeBread","dissimilar"
"720","48",3037,1,"11","Female","Not Hispanic","Native Hawaiian & Caucasian","c","d","f",2.26,27.16,8,0,"Bottle","1","Left","BottleLeaf","dissimilar"
"721","49",1788,1,"11","Female","Not Hispanic","Native Hawaiian & Caucasian","c","d","f",2.26,27.16,1,0,"Butterfly","1","Right","PigButterfly","dissimilar"
"722","50",7691,1,"11","Female","Not Hispanic","Asian and Caucasian","d","e","g",2.22,26.7,2,0,"Dog","1","Right","ClockDog","dissimilar"
"723","51",2141,1,"11","Male","Not Hispanic","Caucasian","f","g","e",2.47,29.69,3,0,"Bread","1","Right","OrangeBread","dissimilar"
"724","52",3407,0,"11","Female","Not Hispanic","Caucasian","e","e","c",2.2,26.37,4,0,"Leaf","1","Left","BottleLeaf","dissimilar"
"725","53",4427,1,"11","Male","Not Hispanic","Caucasian","e","c","e",2.3,27.55,5,0,"Pig","1","Left","PigButterfly","dissimilar"
"726","54",2466,1,"11","Female","Hispanic","Caucasian","f","c","d",2.16,25.94,6,0,"Clock","1","Left","ClockDog","dissimilar"
"727","56",1938,1,"11","Female","Not Hispanic","Caucasian","f","g","e",2.45,29.39,8,0,"Bottle","1","Left","BottleLeaf","dissimilar"
"728","57",4634,1,"11","Female","Not Hispanic","African American/Caucasian","f","g","c",2.33,27.95,1,0,"Butterfly","1","Right","PigButterfly","dissimilar"
"729","58",8036,1,"11","Female","Not Hispanic","African American/Caucasian","f","g","c",2.33,27.95,2,0,"Dog","1","Right","ClockDog","dissimilar"
"730","59",3532,1,"11","Male","Not Hispanic","Caucasian","d","d","e",2.27,27.19,3,0,"Bread","1","Right","OrangeBread","dissimilar"
"731","62",3192,1,"11","Female","1/8 Hispanic","Caucasian","d","e","b",2.34,28.04,6,0,"Clock","1","Left","ClockDog","dissimilar"
"732","63",1970,1,"11","Male","Hispanic","","e","c","c",2.36,28.34,7,0,"Orange","1","Left","OrangeBread","dissimilar"
"733","64",4457,0,"11","","Not Hispanic","Caucasian","c","c","d",2.41,28.96,8,0,"Bottle","1","Right","BottleLeaf","dissimilar"
"734","65",6224,1,"11","Male","","Caucasian","f","e","e",2.48,29.72,1,0,"Butterfly","1","Right","PigButterfly","dissimilar"
"735","66",3394,1,"11","Female","Not Hispanic","Asian/Caucasian","f","g","f",2.41,28.96,2,0,"Dog","1","Right","ClockDog","dissimilar"
"736","67",1982,1,"11","Female","Not Hispanic","Caucasian","e","e","e",2.33,28.01,3,0,"Bread","1","Right","OrangeBread","dissimilar"
"737","68",3672,1,"11","Male","Not Hispanic","Caucasian","e","c","d",2.32,27.88,4,0,"Leaf","1","Right","BottleLeaf","dissimilar"
"738","69",1465,1,"11","Male","Not Hispanic","Caucasian","f","g","g",2.36,28.37,5,0,"Pig","1","Left","PigButterfly","dissimilar"
"739","71",2519,1,"11","Female","Not Hispanic","Caucasian","e","d","b",2.56,30.71,7,0,"Orange","1","Left","OrangeBread","dissimilar"
"740","73",2409,1,"11","Male","Not Hispanic","Caucasian","e","e","e",2.27,27.19,1,0,"Butterfly","1","Right","PigButterfly","dissimilar"
"741","74",2283,1,"11","Male","Not Hispanic","Caucasian","f","d","h",2.52,30.21,2,0,"Dog","1","Right","ClockDog","dissimilar"
"742","75",2293,1,"11","Female","Not Hispanic","Caucasian","f","e","b",2.56,30.71,3,0,"Bread","1","Right","OrangeBread","dissimilar"
"743","76",5358,1,"11","Female","Not Hispanic","Caucasian","d","d","d",2.22,26.7,4,0,"Leaf","1","Right","BottleLeaf","dissimilar"
"744","77",4915,1,"11","Female","Not Hispanic","African American/Caucasian","e","d","d",2.49,29.85,5,0,"Pig","1","Left","PigButterfly","dissimilar"
"745","78",2214,1,"11","Female","Not Hispanic","Caucasian","f","c","d",2.43,29.16,6,0,"Clock","1","Left","ClockDog","dissimilar"
"746","79",5389,1,"11","Male","Hispanic","Caucasian","f","e","e",2.49,29.85,7,0,"Orange","1","Left","OrangeBread","dissimilar"
"747","80",3112,1,"11","Male","Not Hispanic","Caucasian","f","e","e",2.14,25.68,8,0,"Bottle","1","Left","BottleLeaf","dissimilar"
"748","81",3852,1,"11","Male ","Hispanic","Caucasian","d","c","d",2.36,28.27,1,0,"Butterfly","1","Right","PigButterfly","dissimilar"
"749","83",2885,1,"11","Male ","Not hipanic ","Caucasian ","d","g","g",2.41,28.9,3,0,"Bread","1","Right","OrangeBread","dissimilar"
"750","84",1496,1,"11","Male ","Hispanic","Caucasian","d","g","c",2.41,28.9,4,0,"Leaf","1","Right","BottleLeaf","dissimilar"
"751","86",2153,1,"11","Female","Not Hispanic","Caucasian","f","g","d",2.21,26.53,6,0,"Clock","1","Left","ClockDog","dissimilar"
"752","87",3104,0,"11","Male","Hispanic ","Caucasian","e","g","e",2.34,28.11,7,0,"Orange","1","Right","OrangeBread","dissimilar"
"753","89",1725,1,"11","Female","Not Hispanic","Caucasian ","d","b","b",2.21,26.47,1,0,"Butterfly","1","Right","PigButterfly","dissimilar"
"754","90",2775,1,"11","Male","Hispanic","Caucasian","d","g","e",2.52,30.18,2,0,"Dog","1","Right","ClockDog","dissimilar"
"755","93",4723,1,"11","Female","Not Hispanic","Asian","","","",2.68,32.15,5,0,"Pig","1","Left","PigButterfly","dissimilar"
"756","95",1586,1,"11","Female","Not Hispanic ","Caucasian","e","e","g",2.85,34.16,6,0,"Clock","1","Left","ClockDog","dissimilar"
"757","97",3323,1,"11"," Female","Not Hispanic ","Caucasian","d","c","c",2.34,28.11,8,0,"Bottle","1","Left","BottleLeaf","dissimilar"
"758","98",2828,1,"11","Male","Hispanic","American Indian or Alaskan / Caucasian","e","g","d",2.64,31.73,1,0,"Butterfly","1","Right","PigButterfly","dissimilar"
"759","101",9418,1,"12","Male","Caucasian",NA,"","e","e",2.52,30.21,4,0,"Ice_Cream","1","Left","Ice creamBroccoli","similar"
"760","102",3930,1,"12","Male ","Caucasian/ Asian-American",NA,"e","g","e",2.38,28.57,5,0,"Fork","1","Right","SpoonFork","similar"
"761","103",3957,0,"12","Female","Caucasian ",NA,"e","c","b",2.68,32.19,6,0,"Doll","1","Left","Teddy BearDoll","similar"
