Date,Time,File,Subj,Cond,Block,Trial,Order,task,Resp,Name,Stim,RT,Correct,Started@,LoadTime,TotalInt,Stim 1,Time 1,Stim 2,Time 2,
8/26/2016,11:34,C:\Documents and Settings\lab\Desktop\Tadpole\Perceptual Study Perceptual Task\Tadpole_Perceptual_7.csv,16,1,1,1,1.01,retrieval,57,SPACE,"press spacebar to start perceptual task",4660,True,0,33,73,"press spacebar to start perceptual task",4673,
8/26/2016,11:34,C:\Documents and Settings\lab\Desktop\Tadpole\Perceptual Study Perceptual Task\Tadpole_Perceptual_7.csv,16,1,1,1,2.01,retrieval,57,SPACE,"MutedBallie.avi (174x144)",2689,True,4746,2811,2837,"MutedBallie.avi (174x144)",2706,"blacksquare.bmp",4780,
8/26/2016,11:34,C:\Documents and Settings\lab\Desktop\Tadpole\Perceptual Study Perceptual Task\Tadpole_Perceptual_7.csv,16,1,1,1,2.02,retrieval,57,SPACE,"blacksquare.bmp",4771,True,4746,2811,2837,"MutedBallie.avi (174x144)",2706,"blacksquare.bmp",4780,
8/26/2016,11:34,C:\Documents and Settings\lab\Desktop\Tadpole\Perceptual Study Perceptual Task\Tadpole_Perceptual_7.csv,16,1,1,2,3.01,retrieval,2,2,"cake_hat_b.bmp",2860,True,15069,280,306,"cake_hat_b.bmp",2879,"blacksquare.bmp",2973,
8/26/2016,11:34,C:\Documents and Settings\lab\Desktop\Tadpole\Perceptual Study Perceptual Task\Tadpole_Perceptual_7.csv,16,1,1,2,3.02,retrieval,57,SPACE,"blacksquare.bmp",2968,True,15069,280,306,"cake_hat_b.bmp",2879,"blacksquare.bmp",2973,
8/26/2016,11:34,C:\Documents and Settings\lab\Desktop\Tadpole\Perceptual Study Perceptual Task\Tadpole_Perceptual_7.csv,16,1,1,3,4.01,retrieval,1,1,"leaf_jacket_b.bmp",4311,True,21227,549,575,"leaf_jacket_b.bmp",4325,"blacksquare.bmp",670,
8/26/2016,11:34,C:\Documents and Settings\lab\Desktop\Tadpole\Perceptual Study Perceptual Task\Tadpole_Perceptual_7.csv,16,1,1,3,4.02,retrieval,57,SPACE,"blacksquare.bmp",659,True,21227,549,575,"leaf_jacket_b.bmp",4325,"blacksquare.bmp",670,
8/26/2016,11:34,C:\Documents and Settings\lab\Desktop\Tadpole\Perceptual Study Perceptual Task\Tadpole_Perceptual_7.csv,16,1,1,4,5.01,retrieval,1,1,"apple_bear_b.bmp",8454,True,26797,133,161,"apple_bear_b.bmp",8474,"blacksquare.bmp",2719,
8/26/2016,11:34,C:\Documents and Settings\lab\Desktop\Tadpole\Perceptual Study Perceptual Task\Tadpole_Perceptual_7.csv,16,1,1,4,5.02,retrieval,57,SPACE,"blacksquare.bmp",2713,True,26797,133,161,"apple_bear_b.bmp",8474,"blacksquare.bmp",2719,
8/26/2016,11:34,C:\Documents and Settings\lab\Desktop\Tadpole\Perceptual Study Perceptual Task\Tadpole_Perceptual_7.csv,16,1,1,5,6.01,retrieval,1,1,"elephant_broccoli_b.bmp",5388,False,38151,200,226,"elephant_broccoli_b.bmp",5410,"blacksquare.bmp",2170,
8/26/2016,11:34,C:\Documents and Settings\lab\Desktop\Tadpole\Perceptual Study Perceptual Task\Tadpole_Perceptual_7.csv,16,1,1,5,6.02,retrieval,57,SPACE,"blacksquare.bmp",2168,True,38151,200,226,"elephant_broccoli_b.bmp",5410,"blacksquare.bmp",2170,
8/26/2016,11:34,C:\Documents and Settings\lab\Desktop\Tadpole\Perceptual Study Perceptual Task\Tadpole_Perceptual_7.csv,16,1,1,6,7.01,retrieval,1,1,"clock_dog_b.bmp",3702,True,45957,200,226,"clock_dog_b.bmp",3722,"blacksquare.bmp",2303,
8/26/2016,11:34,C:\Documents and Settings\lab\Desktop\Tadpole\Perceptual Study Perceptual Task\Tadpole_Perceptual_7.csv,16,1,1,6,7.02,retrieval,57,SPACE,"blacksquare.bmp",2301,True,45957,200,226,"clock_dog_b.bmp",3722,"blacksquare.bmp",2303,
8/26/2016,11:34,C:\Documents and Settings\lab\Desktop\Tadpole\Perceptual Study Perceptual Task\Tadpole_Perceptual_7.csv,16,1,1,7,8.01,retrieval,1,1,"crayon_bottle_b.bmp",6630,True,52208,201,228,"crayon_bottle_b.bmp",6654,"blacksquare.bmp",2383,
8/26/2016,11:34,C:\Documents and Settings\lab\Desktop\Tadpole\Perceptual Study Perceptual Task\Tadpole_Perceptual_7.csv,16,1,1,7,8.02,retrieval,57,SPACE,"blacksquare.bmp",2380,True,52208,201,228,"crayon_bottle_b.bmp",6654,"blacksquare.bmp",2383,
8/26/2016,11:34,C:\Documents and Settings\lab\Desktop\Tadpole\Perceptual Study Perceptual Task\Tadpole_Perceptual_7.csv,16,1,1,8,9.01,retrieval,1,1,"pillow_egg_b.bmp",7043,False,61473,148,174,"pillow_egg_b.bmp",7056,"blacksquare.bmp",3133,
8/26/2016,11:34,C:\Documents and Settings\lab\Desktop\Tadpole\Perceptual Study Perceptual Task\Tadpole_Perceptual_7.csv,16,1,1,8,9.02,retrieval,57,SPACE,"blacksquare.bmp",3120,True,61473,148,174,"pillow_egg_b.bmp",7056,"blacksquare.bmp",3133,
8/26/2016,11:34,C:\Documents and Settings\lab\Desktop\Tadpole\Perceptual Study Perceptual Task\Tadpole_Perceptual_7.csv,16,1,1,9,10.01,retrieval,1,1,"doll_teddybear_b.bmp",4685,False,71836,174,201,"doll_teddybear_b.bmp",4699,"blacksquare.bmp",3495,
8/26/2016,11:34,C:\Documents and Settings\lab\Desktop\Tadpole\Perceptual Study Perceptual Task\Tadpole_Perceptual_7.csv,16,1,1,9,10.02,retrieval,57,SPACE,"blacksquare.bmp",3488,True,71836,174,201,"doll_teddybear_b.bmp",4699,"blacksquare.bmp",3495,
8/26/2016,11:34,C:\Documents and Settings\lab\Desktop\Tadpole\Perceptual Study Perceptual Task\Tadpole_Perceptual_7.csv,16,1,1,10,11.01,retrieval,1,1,"strawberry_bunny_b.bmp",3575,True,80231,160,187,"strawberry_bunny_b.bmp",3588,"blacksquare.bmp",3789,
8/26/2016,11:34,C:\Documents and Settings\lab\Desktop\Tadpole\Perceptual Study Perceptual Task\Tadpole_Perceptual_7.csv,16,1,1,10,11.02,retrieval,57,SPACE,"blacksquare.bmp",3781,True,80231,160,187,"strawberry_bunny_b.bmp",3588,"blacksquare.bmp",3789,
8/26/2016,11:34,C:\Documents and Settings\lab\Desktop\Tadpole\Perceptual Study Perceptual Task\Tadpole_Perceptual_7.csv,16,1,1,11,12.01,retrieval,1,1,"icecream_bicycle_b.bmp",1730,True,87795,148,174,"icecream_bicycle_b.bmp",1754,"blacksquare.bmp",8596,
8/26/2016,11:34,C:\Documents and Settings\lab\Desktop\Tadpole\Perceptual Study Perceptual Task\Tadpole_Perceptual_7.csv,16,1,1,11,12.02,retrieval,57,SPACE,"blacksquare.bmp",8592,True,87795,148,174,"icecream_bicycle_b.bmp",1754,"blacksquare.bmp",8596,
8/26/2016,11:34,C:\Documents and Settings\lab\Desktop\Tadpole\Perceptual Study Perceptual Task\Tadpole_Perceptual_7.csv,16,1,1,12,13.01,retrieval,1,1,"orange_bread_b.bmp",6508,True,98319,160,187,"orange_bread_b.bmp",6534,"blacksquare.bmp",2116,
8/26/2016,11:34,C:\Documents and Settings\lab\Desktop\Tadpole\Perceptual Study Perceptual Task\Tadpole_Perceptual_7.csv,16,1,1,12,13.02,retrieval,57,SPACE,"blacksquare.bmp",2108,True,98319,160,187,"orange_bread_b.bmp",6534,"blacksquare.bmp",2116,
8/26/2016,11:34,C:\Documents and Settings\lab\Desktop\Tadpole\Perceptual Study Perceptual Task\Tadpole_Perceptual_7.csv,16,1,1,13,14.01,retrieval,2,2,"pig_duck_b.bmp",4929,True,107156,134,160,"pig_duck_b.bmp",4954,"blacksquare.bmp",2731,
8/26/2016,11:34,C:\Documents and Settings\lab\Desktop\Tadpole\Perceptual Study Perceptual Task\Tadpole_Perceptual_7.csv,16,1,1,13,14.02,retrieval,57,SPACE,"blacksquare.bmp",2728,True,107156,134,160,"pig_duck_b.bmp",4954,"blacksquare.bmp",2731,
8/26/2016,11:34,C:\Documents and Settings\lab\Desktop\Tadpole\Perceptual Study Perceptual Task\Tadpole_Perceptual_7.csv,16,1,1,14,15.01,retrieval,2,2,"tv_fork_b.bmp",3040,True,115001,201,228,"tv_fork_b.bmp",3065,"blacksquare.bmp",3456,
8/26/2016,11:34,C:\Documents and Settings\lab\Desktop\Tadpole\Perceptual Study Perceptual Task\Tadpole_Perceptual_7.csv,16,1,1,14,15.02,retrieval,57,SPACE,"blacksquare.bmp",3450,True,115001,201,228,"tv_fork_b.bmp",3065,"blacksquare.bmp",3456,
8/26/2016,11:34,C:\Documents and Settings\lab\Desktop\Tadpole\Perceptual Study Perceptual Task\Tadpole_Perceptual_7.csv,16,1,1,15,16.01,retrieval,2,2,"butterfly_flowers_b.bmp",3129,True,121750,173,200,"butterfly_flowers_b.bmp",3146,"blacksquare.bmp",2665,
8/26/2016,11:34,C:\Documents and Settings\lab\Desktop\Tadpole\Perceptual Study Perceptual Task\Tadpole_Perceptual_7.csv,16,1,1,15,16.02,retrieval,57,SPACE,"blacksquare.bmp",2658,True,121750,173,200,"butterfly_flowers_b.bmp",3146,"blacksquare.bmp",2665,
8/26/2016,11:34,C:\Documents and Settings\lab\Desktop\Tadpole\Perceptual Study Perceptual Task\Tadpole_Perceptual_7.csv,16,1,1,16,17.01,retrieval,1,1,"cat_mouse_b.bmp",4191,True,127761,160,187,"cat_mouse_b.bmp",4218,"blacksquare.bmp",1834,
8/26/2016,11:34,C:\Documents and Settings\lab\Desktop\Tadpole\Perceptual Study Perceptual Task\Tadpole_Perceptual_7.csv,16,1,1,16,17.02,retrieval,57,SPACE,"blacksquare.bmp",1831,True,127761,160,187,"cat_mouse_b.bmp",4218,"blacksquare.bmp",1834,
8/26/2016,11:34,C:\Documents and Settings\lab\Desktop\Tadpole\Perceptual Study Perceptual Task\Tadpole_Perceptual_7.csv,16,1,1,17,18.01,retrieval,2,2,"grapes_balloons_b.bmp",2734,False,134000,160,187,"grapes_balloons_b.bmp",2758,"blacksquare.bmp",1674,
8/26/2016,11:34,C:\Documents and Settings\lab\Desktop\Tadpole\Perceptual Study Perceptual Task\Tadpole_Perceptual_7.csv,16,1,1,17,18.02,retrieval,57,SPACE,"blacksquare.bmp",1663,True,134000,160,187,"grapes_balloons_b.bmp",2758,"blacksquare.bmp",1674,
8/26/2016,11:34,C:\Documents and Settings\lab\Desktop\Tadpole\Perceptual Study Perceptual Task\Tadpole_Perceptual_7.csv,16,1,1,18,19.01,retrieval,2,2,"ball_spoon_b.bmp",2663,True,138619,160,187,"ball_spoon_b.bmp",2678,"blacksquare.bmp",2464,
8/26/2016,11:34,C:\Documents and Settings\lab\Desktop\Tadpole\Perceptual Study Perceptual Task\Tadpole_Perceptual_7.csv,16,1,1,18,19.02,retrieval,57,SPACE,"blacksquare.bmp",2455,True,138619,160,187,"ball_spoon_b.bmp",2678,"blacksquare.bmp",2464,
8/26/2016,11:34,C:\Documents and Settings\lab\Desktop\Tadpole\Perceptual Study Perceptual Task\Tadpole_Perceptual_7.csv,16,1,1,19,20.01,retrieval,2,2,"cookie_sock_b.bmp",1627,False,143948,160,186,"cookie_sock_b.bmp",1648,"blacksquare.bmp",2437,
8/26/2016,11:34,C:\Documents and Settings\lab\Desktop\Tadpole\Perceptual Study Perceptual Task\Tadpole_Perceptual_7.csv,16,1,1,19,20.02,retrieval,57,SPACE,"blacksquare.bmp",2425,True,143948,160,186,"cookie_sock_b.bmp",1648,"blacksquare.bmp",2437,
8/26/2016,11:34,C:\Documents and Settings\lab\Desktop\Tadpole\Perceptual Study Perceptual Task\Tadpole_Perceptual_7.csv,16,1,1,20,21.01,retrieval,2,2,"refrigerator_chair_b.bmp",1898,True,148219,173,200,"refrigerator_chair_b.bmp",1914,"blacksquare.bmp",1728,
8/26/2016,11:34,C:\Documents and Settings\lab\Desktop\Tadpole\Perceptual Study Perceptual Task\Tadpole_Perceptual_7.csv,16,1,1,20,21.02,retrieval,57,SPACE,"blacksquare.bmp",1717,True,148219,173,200,"refrigerator_chair_b.bmp",1914,"blacksquare.bmp",1728,
8/26/2016,11:34,C:\Documents and Settings\lab\Desktop\Tadpole\Perceptual Study Perceptual Task\Tadpole_Perceptual_7.csv,16,1,1,21,22.01,retrieval,2,2,"shoe_pizza_b.bmp",684,True,152061,188,214,"shoe_pizza_b.bmp",710,"whiteborder.bmp",723,
8/26/2016,11:34,C:\Documents and Settings\lab\Desktop\Tadpole\Perceptual Study Perceptual Task\Tadpole_Perceptual_7.csv,16,1,1,21,22.02,retrieval,57,SPACE,"whiteborder.bmp",719,True,152061,188,214,"shoe_pizza_b.bmp",710,"whiteborder.bmp",723,
